<?xml version="1.0" encoding="UTF-8"?>
<?xml-stylesheet type="text/xsl" href="define2-1-0.xsl"?>
<ODM xmlns="http://www.cdisc.org/ns/odm/v1.3"
     xmlns:def="http://www.cdisc.org/ns/def/v2.1"
     xmlns:xlink="http://www.w3.org/1999/xlink"
     xmlns:xsi="http://www.w3.org/2001/XMLSchema-instance"
     ODMVersion="1.3.2"
     FileType="Snapshot"
     FileOID="CTX-NSCLC-301.20260920204825"
     CreationDateTime="2026-09-20T20:48:22"
     AsOfDateTime="2026-09-20T20:48:22"
     Originator="Lovemore Gakava (synthetic dataset author)"
     def:Context="Submission">
  <Study OID="STUDY.CTX-NSCLC-301">
    <GlobalVariables>
      <StudyName>SIMULATED-TORIVUMAB-2026</StudyName>
      <StudyDescription>Phase 3 randomised, double-blind, placebo-controlled NSCLC study (synthetic data)</StudyDescription>
      <ProtocolName>TORIVUMAB-NSCLC-301</ProtocolName>
    </GlobalVariables>
    <MetaDataVersion OID="MDV.MSG-SDTM-3.4-ADAM-1.3" Name="MSG SDTM-IG 3.4 + ADaM-IG 1.3" Description="SIMULATED-TORIVUMAB-2026 — Define-XML v2.1" def:DefineVersion="2.1.0">
      <def:Standards>
        <def:Standard OID="STD.SDTM" Name="SDTMIG" Type="IG" PublishingSet="SDTM" Version="3.4" Status="Final"/>
        <def:Standard OID="STD.ADAM" Name="ADaMIG" Type="IG" PublishingSet="ADaM" Version="1.3" Status="Final"/>
        <def:Standard OID="STD.CT.SDTM" Name="CDISC/NCI" Type="CT" PublishingSet="SDTM" Version="2026-03-27" Status="Final"/>
        <def:Standard OID="STD.CT.ADAM" Name="CDISC/NCI" Type="CT" PublishingSet="ADaM" Version="2026-03-27" Status="Final"/>
      </def:Standards>
      <ItemGroupDef OID="IG.AE" Name="AE" Repeating="Yes" IsReferenceData="No" SASDatasetName="AE" Domain="AE" Purpose="Tabulation" def:Structure="One record per subject per adverse event" def:Class="EVENTS" def:ArchiveLocationID="LF.AE" def:StandardOID="STD.SDTM">
        <Description><TranslatedText xml:lang="en">Adverse Events</TranslatedText></Description>
        <ItemRef ItemOID="IT.AE.STUDYID" OrderNumber="1" Mandatory="Yes" KeySequence="1"/>
        <ItemRef ItemOID="IT.AE.DOMAIN" OrderNumber="2" Mandatory="No"/>
        <ItemRef ItemOID="IT.AE.USUBJID" OrderNumber="3" Mandatory="Yes" KeySequence="2"/>
        <ItemRef ItemOID="IT.AE.AESEQ" OrderNumber="4" Mandatory="Yes" KeySequence="3"/>
        <ItemRef ItemOID="IT.AE.AETERM" OrderNumber="5" Mandatory="No"/>
        <ItemRef ItemOID="IT.AE.AELLT" OrderNumber="6" Mandatory="No"/>
        <ItemRef ItemOID="IT.AE.AELLTCD" OrderNumber="7" Mandatory="No"/>
        <ItemRef ItemOID="IT.AE.AEDECOD" OrderNumber="8" Mandatory="No"/>
        <ItemRef ItemOID="IT.AE.AEPTCD" OrderNumber="9" Mandatory="No"/>
        <ItemRef ItemOID="IT.AE.AEHLT" OrderNumber="10" Mandatory="No"/>
        <ItemRef ItemOID="IT.AE.AEHLTCD" OrderNumber="11" Mandatory="No"/>
        <ItemRef ItemOID="IT.AE.AEHLGT" OrderNumber="12" Mandatory="No"/>
        <ItemRef ItemOID="IT.AE.AEHLGTCD" OrderNumber="13" Mandatory="No"/>
        <ItemRef ItemOID="IT.AE.AECAT" OrderNumber="14" Mandatory="No"/>
        <ItemRef ItemOID="IT.AE.AEBODSYS" OrderNumber="15" Mandatory="No"/>
        <ItemRef ItemOID="IT.AE.AEBDSYCD" OrderNumber="16" Mandatory="No"/>
        <ItemRef ItemOID="IT.AE.AESOC" OrderNumber="17" Mandatory="No"/>
        <ItemRef ItemOID="IT.AE.AESOCCD" OrderNumber="18" Mandatory="No"/>
        <ItemRef ItemOID="IT.AE.AESEV" OrderNumber="19" Mandatory="No"/>
        <ItemRef ItemOID="IT.AE.AESER" OrderNumber="20" Mandatory="No"/>
        <ItemRef ItemOID="IT.AE.AEACN" OrderNumber="21" Mandatory="No"/>
        <ItemRef ItemOID="IT.AE.AEREL" OrderNumber="22" Mandatory="No"/>
        <ItemRef ItemOID="IT.AE.AEOUT" OrderNumber="23" Mandatory="No"/>
        <ItemRef ItemOID="IT.AE.AESCONG" OrderNumber="24" Mandatory="No"/>
        <ItemRef ItemOID="IT.AE.AESDISAB" OrderNumber="25" Mandatory="No"/>
        <ItemRef ItemOID="IT.AE.AESDTH" OrderNumber="26" Mandatory="No"/>
        <ItemRef ItemOID="IT.AE.AESHOSP" OrderNumber="27" Mandatory="No"/>
        <ItemRef ItemOID="IT.AE.AESLIFE" OrderNumber="28" Mandatory="No"/>
        <ItemRef ItemOID="IT.AE.AESMIE" OrderNumber="29" Mandatory="No"/>
        <ItemRef ItemOID="IT.AE.AETOXGR" OrderNumber="30" Mandatory="No"/>
        <ItemRef ItemOID="IT.AE.EPOCH" OrderNumber="31" Mandatory="No"/>
        <ItemRef ItemOID="IT.AE.AESTDTC" OrderNumber="32" Mandatory="No"/>
        <ItemRef ItemOID="IT.AE.AEENDTC" OrderNumber="33" Mandatory="No"/>
        <ItemRef ItemOID="IT.AE.AESTDY" OrderNumber="34" Mandatory="No"/>
        <ItemRef ItemOID="IT.AE.AEENDY" OrderNumber="35" Mandatory="No"/>
        <def:leaf ID="LF.AE" xlink:href="ae.xpt">
          <def:title>ae.xpt</def:title>
        </def:leaf>
      </ItemGroupDef>
      <ItemGroupDef OID="IG.CM" Name="CM" Repeating="Yes" IsReferenceData="No" SASDatasetName="CM" Domain="CM" Purpose="Tabulation" def:Structure="One record per subject per medication per occurrence" def:Class="INTERVENTIONS" def:ArchiveLocationID="LF.CM" def:StandardOID="STD.SDTM">
        <Description><TranslatedText xml:lang="en">Concomitant Medications</TranslatedText></Description>
        <ItemRef ItemOID="IT.CM.STUDYID" OrderNumber="1" Mandatory="Yes" KeySequence="1"/>
        <ItemRef ItemOID="IT.CM.DOMAIN" OrderNumber="2" Mandatory="No"/>
        <ItemRef ItemOID="IT.CM.USUBJID" OrderNumber="3" Mandatory="Yes" KeySequence="2"/>
        <ItemRef ItemOID="IT.CM.CMSEQ" OrderNumber="4" Mandatory="Yes" KeySequence="3"/>
        <ItemRef ItemOID="IT.CM.CMTRT" OrderNumber="5" Mandatory="No"/>
        <ItemRef ItemOID="IT.CM.CMDECOD" OrderNumber="6" Mandatory="No"/>
        <ItemRef ItemOID="IT.CM.CMCAT" OrderNumber="7" Mandatory="No"/>
        <ItemRef ItemOID="IT.CM.CMINDC" OrderNumber="8" Mandatory="No"/>
        <ItemRef ItemOID="IT.CM.CMROUTE" OrderNumber="9" Mandatory="No"/>
        <ItemRef ItemOID="IT.CM.EPOCH" OrderNumber="10" Mandatory="No"/>
        <ItemRef ItemOID="IT.CM.CMSTDTC" OrderNumber="11" Mandatory="No"/>
        <ItemRef ItemOID="IT.CM.CMENDTC" OrderNumber="12" Mandatory="No"/>
        <ItemRef ItemOID="IT.CM.CMSTDY" OrderNumber="13" Mandatory="No"/>
        <ItemRef ItemOID="IT.CM.CMENDY" OrderNumber="14" Mandatory="No"/>
        <ItemRef ItemOID="IT.CM.CMENRTPT" OrderNumber="15" Mandatory="No"/>
        <ItemRef ItemOID="IT.CM.CMENTPT" OrderNumber="16" Mandatory="No"/>
        <ItemRef ItemOID="IT.CM.CMATC" OrderNumber="17" Mandatory="No"/>
        <def:leaf ID="LF.CM" xlink:href="cm.xpt">
          <def:title>cm.xpt</def:title>
        </def:leaf>
      </ItemGroupDef>
      <ItemGroupDef OID="IG.DA" Name="DA" Repeating="Yes" IsReferenceData="No" SASDatasetName="DA" Domain="DA" Purpose="Tabulation" def:Structure="One record per subject per accountability measure per drug per visit" def:Class="INTERVENTIONS" def:ArchiveLocationID="LF.DA" def:StandardOID="STD.SDTM">
        <Description><TranslatedText xml:lang="en">Drug Accountability</TranslatedText></Description>
        <ItemRef ItemOID="IT.DA.STUDYID" OrderNumber="1" Mandatory="Yes" KeySequence="1"/>
        <ItemRef ItemOID="IT.DA.DOMAIN" OrderNumber="2" Mandatory="No"/>
        <ItemRef ItemOID="IT.DA.USUBJID" OrderNumber="3" Mandatory="Yes" KeySequence="2"/>
        <ItemRef ItemOID="IT.DA.DASEQ" OrderNumber="4" Mandatory="Yes" KeySequence="3"/>
        <ItemRef ItemOID="IT.DA.DATESTCD" OrderNumber="5" Mandatory="No"/>
        <ItemRef ItemOID="IT.DA.DATEST" OrderNumber="6" Mandatory="No"/>
        <ItemRef ItemOID="IT.DA.DACAT" OrderNumber="7" Mandatory="No"/>
        <ItemRef ItemOID="IT.DA.DAORRES" OrderNumber="8" Mandatory="No"/>
        <ItemRef ItemOID="IT.DA.DAORRESU" OrderNumber="9" Mandatory="No"/>
        <ItemRef ItemOID="IT.DA.DASTRESC" OrderNumber="10" Mandatory="No"/>
        <ItemRef ItemOID="IT.DA.DASTRESN" OrderNumber="11" Mandatory="No"/>
        <ItemRef ItemOID="IT.DA.DASTRESU" OrderNumber="12" Mandatory="No"/>
        <ItemRef ItemOID="IT.DA.VISITNUM" OrderNumber="13" Mandatory="No"/>
        <ItemRef ItemOID="IT.DA.VISIT" OrderNumber="14" Mandatory="No"/>
        <ItemRef ItemOID="IT.DA.EPOCH" OrderNumber="15" Mandatory="No"/>
        <ItemRef ItemOID="IT.DA.DADTC" OrderNumber="16" Mandatory="No"/>
        <ItemRef ItemOID="IT.DA.DADY" OrderNumber="17" Mandatory="No"/>
        <def:leaf ID="LF.DA" xlink:href="da.xpt">
          <def:title>da.xpt</def:title>
        </def:leaf>
      </ItemGroupDef>
      <ItemGroupDef OID="IG.DD" Name="DD" Repeating="Yes" IsReferenceData="No" SASDatasetName="DD" Domain="DD" Purpose="Tabulation" def:Structure="One record per subject per death detail" def:Class="EVENTS" def:ArchiveLocationID="LF.DD" def:StandardOID="STD.SDTM">
        <Description><TranslatedText xml:lang="en">Death Details</TranslatedText></Description>
        <ItemRef ItemOID="IT.DD.STUDYID" OrderNumber="1" Mandatory="Yes" KeySequence="1"/>
        <ItemRef ItemOID="IT.DD.DOMAIN" OrderNumber="2" Mandatory="No"/>
        <ItemRef ItemOID="IT.DD.USUBJID" OrderNumber="3" Mandatory="Yes" KeySequence="2"/>
        <ItemRef ItemOID="IT.DD.DDSEQ" OrderNumber="4" Mandatory="Yes" KeySequence="3"/>
        <ItemRef ItemOID="IT.DD.DDTESTCD" OrderNumber="5" Mandatory="No"/>
        <ItemRef ItemOID="IT.DD.DDTEST" OrderNumber="6" Mandatory="No"/>
        <ItemRef ItemOID="IT.DD.DDORRES" OrderNumber="7" Mandatory="No"/>
        <ItemRef ItemOID="IT.DD.DDSTRESC" OrderNumber="8" Mandatory="No"/>
        <ItemRef ItemOID="IT.DD.EPOCH" OrderNumber="9" Mandatory="No"/>
        <ItemRef ItemOID="IT.DD.DDDTC" OrderNumber="10" Mandatory="No"/>
        <ItemRef ItemOID="IT.DD.DDDY" OrderNumber="11" Mandatory="No"/>
        <def:leaf ID="LF.DD" xlink:href="dd.xpt">
          <def:title>dd.xpt</def:title>
        </def:leaf>
      </ItemGroupDef>
      <ItemGroupDef OID="IG.DM" Name="DM" Repeating="No" IsReferenceData="No" SASDatasetName="DM" Domain="DM" Purpose="Tabulation" def:Structure="One record per subject" def:Class="SPECIAL PURPOSE" def:ArchiveLocationID="LF.DM" def:StandardOID="STD.SDTM">
        <Description><TranslatedText xml:lang="en">Demographics</TranslatedText></Description>
        <ItemRef ItemOID="IT.DM.STUDYID" OrderNumber="1" Mandatory="Yes" KeySequence="1"/>
        <ItemRef ItemOID="IT.DM.DOMAIN" OrderNumber="2" Mandatory="No"/>
        <ItemRef ItemOID="IT.DM.USUBJID" OrderNumber="3" Mandatory="Yes" KeySequence="2"/>
        <ItemRef ItemOID="IT.DM.SUBJID" OrderNumber="4" Mandatory="No"/>
        <ItemRef ItemOID="IT.DM.RFSTDTC" OrderNumber="5" Mandatory="No"/>
        <ItemRef ItemOID="IT.DM.RFENDTC" OrderNumber="6" Mandatory="No"/>
        <ItemRef ItemOID="IT.DM.RFXSTDTC" OrderNumber="7" Mandatory="No"/>
        <ItemRef ItemOID="IT.DM.RFXENDTC" OrderNumber="8" Mandatory="No"/>
        <ItemRef ItemOID="IT.DM.RFICDTC" OrderNumber="9" Mandatory="No"/>
        <ItemRef ItemOID="IT.DM.RFPENDTC" OrderNumber="10" Mandatory="No"/>
        <ItemRef ItemOID="IT.DM.DTHDTC" OrderNumber="11" Mandatory="No"/>
        <ItemRef ItemOID="IT.DM.DTHFL" OrderNumber="12" Mandatory="No"/>
        <ItemRef ItemOID="IT.DM.SITEID" OrderNumber="13" Mandatory="No"/>
        <ItemRef ItemOID="IT.DM.AGE" OrderNumber="14" Mandatory="No"/>
        <ItemRef ItemOID="IT.DM.AGEU" OrderNumber="15" Mandatory="No"/>
        <ItemRef ItemOID="IT.DM.SEX" OrderNumber="16" Mandatory="No"/>
        <ItemRef ItemOID="IT.DM.RACE" OrderNumber="17" Mandatory="No"/>
        <ItemRef ItemOID="IT.DM.ETHNIC" OrderNumber="18" Mandatory="No"/>
        <ItemRef ItemOID="IT.DM.ARMCD" OrderNumber="19" Mandatory="No"/>
        <ItemRef ItemOID="IT.DM.ARM" OrderNumber="20" Mandatory="No"/>
        <ItemRef ItemOID="IT.DM.ACTARMCD" OrderNumber="21" Mandatory="No"/>
        <ItemRef ItemOID="IT.DM.ACTARM" OrderNumber="22" Mandatory="No"/>
        <ItemRef ItemOID="IT.DM.ARMNRS" OrderNumber="23" Mandatory="No"/>
        <ItemRef ItemOID="IT.DM.COUNTRY" OrderNumber="24" Mandatory="No"/>
        <ItemRef ItemOID="IT.DM.DMDTC" OrderNumber="25" Mandatory="No"/>
        <ItemRef ItemOID="IT.DM.DMDY" OrderNumber="26" Mandatory="No"/>
        <def:leaf ID="LF.DM" xlink:href="dm.xpt">
          <def:title>dm.xpt</def:title>
        </def:leaf>
      </ItemGroupDef>
      <ItemGroupDef OID="IG.DS" Name="DS" Repeating="Yes" IsReferenceData="No" SASDatasetName="DS" Domain="DS" Purpose="Tabulation" def:Structure="One record per subject per disposition event" def:Class="EVENTS" def:ArchiveLocationID="LF.DS" def:StandardOID="STD.SDTM">
        <Description><TranslatedText xml:lang="en">Disposition</TranslatedText></Description>
        <ItemRef ItemOID="IT.DS.STUDYID" OrderNumber="1" Mandatory="Yes" KeySequence="1"/>
        <ItemRef ItemOID="IT.DS.DOMAIN" OrderNumber="2" Mandatory="No"/>
        <ItemRef ItemOID="IT.DS.USUBJID" OrderNumber="3" Mandatory="Yes" KeySequence="2"/>
        <ItemRef ItemOID="IT.DS.DSSEQ" OrderNumber="4" Mandatory="Yes" KeySequence="3"/>
        <ItemRef ItemOID="IT.DS.DSTERM" OrderNumber="5" Mandatory="No"/>
        <ItemRef ItemOID="IT.DS.DSDECOD" OrderNumber="6" Mandatory="No"/>
        <ItemRef ItemOID="IT.DS.DSCAT" OrderNumber="7" Mandatory="No"/>
        <ItemRef ItemOID="IT.DS.DSSCAT" OrderNumber="8" Mandatory="No"/>
        <ItemRef ItemOID="IT.DS.EPOCH" OrderNumber="9" Mandatory="No"/>
        <ItemRef ItemOID="IT.DS.DSSTDTC" OrderNumber="10" Mandatory="No"/>
        <ItemRef ItemOID="IT.DS.DSSTDY" OrderNumber="11" Mandatory="No"/>
        <def:leaf ID="LF.DS" xlink:href="ds.xpt">
          <def:title>ds.xpt</def:title>
        </def:leaf>
      </ItemGroupDef>
      <ItemGroupDef OID="IG.DV" Name="DV" Repeating="Yes" IsReferenceData="No" SASDatasetName="DV" Purpose="Tabulation" def:Structure="One record per subject per protocol deviation" def:Class="EVENTS" def:ArchiveLocationID="LF.DV" def:StandardOID="STD.SDTM">
        <Description><TranslatedText xml:lang="en">Protocol Deviations</TranslatedText></Description>
        <ItemRef ItemOID="IT.DV.STUDYID" OrderNumber="1" Mandatory="Yes" KeySequence="1"/>
        <ItemRef ItemOID="IT.DV.DOMAIN" OrderNumber="2" Mandatory="No"/>
        <ItemRef ItemOID="IT.DV.USUBJID" OrderNumber="3" Mandatory="Yes" KeySequence="2"/>
        <ItemRef ItemOID="IT.DV.DVSEQ" OrderNumber="4" Mandatory="Yes" KeySequence="3"/>
        <ItemRef ItemOID="IT.DV.DVTERM" OrderNumber="5" Mandatory="No"/>
        <ItemRef ItemOID="IT.DV.DVDECOD" OrderNumber="6" Mandatory="No"/>
        <ItemRef ItemOID="IT.DV.DVCAT" OrderNumber="7" Mandatory="No"/>
        <ItemRef ItemOID="IT.DV.EPOCH" OrderNumber="8" Mandatory="No"/>
        <ItemRef ItemOID="IT.DV.DVSTDTC" OrderNumber="9" Mandatory="No"/>
        <ItemRef ItemOID="IT.DV.DVSTDY" OrderNumber="10" Mandatory="No"/>
        <def:leaf ID="LF.DV" xlink:href="dv.xpt">
          <def:title>dv.xpt</def:title>
        </def:leaf>
      </ItemGroupDef>
      <ItemGroupDef OID="IG.EX" Name="EX" Repeating="Yes" IsReferenceData="No" SASDatasetName="EX" Domain="EX" Purpose="Tabulation" def:Structure="One record per subject per administration" def:Class="INTERVENTIONS" def:ArchiveLocationID="LF.EX" def:StandardOID="STD.SDTM">
        <Description><TranslatedText xml:lang="en">Exposure</TranslatedText></Description>
        <ItemRef ItemOID="IT.EX.STUDYID" OrderNumber="1" Mandatory="Yes" KeySequence="1"/>
        <ItemRef ItemOID="IT.EX.DOMAIN" OrderNumber="2" Mandatory="No"/>
        <ItemRef ItemOID="IT.EX.USUBJID" OrderNumber="3" Mandatory="Yes" KeySequence="2"/>
        <ItemRef ItemOID="IT.EX.EXSEQ" OrderNumber="4" Mandatory="Yes" KeySequence="3"/>
        <ItemRef ItemOID="IT.EX.EXTRT" OrderNumber="5" Mandatory="No"/>
        <ItemRef ItemOID="IT.EX.EXDOSE" OrderNumber="6" Mandatory="No"/>
        <ItemRef ItemOID="IT.EX.EXDOSU" OrderNumber="7" Mandatory="No"/>
        <ItemRef ItemOID="IT.EX.EXDOSFRM" OrderNumber="8" Mandatory="No"/>
        <ItemRef ItemOID="IT.EX.EXROUTE" OrderNumber="9" Mandatory="No"/>
        <ItemRef ItemOID="IT.EX.VISITNUM" OrderNumber="10" Mandatory="No"/>
        <ItemRef ItemOID="IT.EX.VISIT" OrderNumber="11" Mandatory="No"/>
        <ItemRef ItemOID="IT.EX.EPOCH" OrderNumber="12" Mandatory="No"/>
        <ItemRef ItemOID="IT.EX.EXSTDTC" OrderNumber="13" Mandatory="No"/>
        <ItemRef ItemOID="IT.EX.EXENDTC" OrderNumber="14" Mandatory="No"/>
        <ItemRef ItemOID="IT.EX.EXSTDY" OrderNumber="15" Mandatory="No"/>
        <ItemRef ItemOID="IT.EX.EXENDY" OrderNumber="16" Mandatory="No"/>
        <def:leaf ID="LF.EX" xlink:href="ex.xpt">
          <def:title>ex.xpt</def:title>
        </def:leaf>
      </ItemGroupDef>
      <ItemGroupDef OID="IG.LB" Name="LB" Repeating="Yes" IsReferenceData="No" SASDatasetName="LB" Domain="LB" Purpose="Tabulation" def:Structure="One record per subject per lab test per visit" def:Class="FINDINGS" def:ArchiveLocationID="LF.LB" def:StandardOID="STD.SDTM" def:CommentOID="COM.LB.NOLC">
        <Description><TranslatedText xml:lang="en">Laboratory Test Results</TranslatedText></Description>
        <ItemRef ItemOID="IT.LB.STUDYID" OrderNumber="1" Mandatory="Yes" KeySequence="1"/>
        <ItemRef ItemOID="IT.LB.DOMAIN" OrderNumber="2" Mandatory="No"/>
        <ItemRef ItemOID="IT.LB.USUBJID" OrderNumber="3" Mandatory="Yes" KeySequence="2"/>
        <ItemRef ItemOID="IT.LB.LBSEQ" OrderNumber="4" Mandatory="Yes" KeySequence="3"/>
        <ItemRef ItemOID="IT.LB.LBTESTCD" OrderNumber="5" Mandatory="No"/>
        <ItemRef ItemOID="IT.LB.LBTEST" OrderNumber="6" Mandatory="No"/>
        <ItemRef ItemOID="IT.LB.LBCAT" OrderNumber="7" Mandatory="No"/>
        <ItemRef ItemOID="IT.LB.LBORRES" OrderNumber="8" Mandatory="No"/>
        <ItemRef ItemOID="IT.LB.LBORRESU" OrderNumber="9" Mandatory="No"/>
        <ItemRef ItemOID="IT.LB.LBORNRLO" OrderNumber="10" Mandatory="No"/>
        <ItemRef ItemOID="IT.LB.LBORNRHI" OrderNumber="11" Mandatory="No"/>
        <ItemRef ItemOID="IT.LB.LBSTRESC" OrderNumber="12" Mandatory="No"/>
        <ItemRef ItemOID="IT.LB.LBSTRESN" OrderNumber="13" Mandatory="No"/>
        <ItemRef ItemOID="IT.LB.LBSTRESU" OrderNumber="14" Mandatory="No"/>
        <ItemRef ItemOID="IT.LB.LBSTNRLO" OrderNumber="15" Mandatory="No"/>
        <ItemRef ItemOID="IT.LB.LBSTNRHI" OrderNumber="16" Mandatory="No"/>
        <ItemRef ItemOID="IT.LB.LBNRIND" OrderNumber="17" Mandatory="No"/>
        <ItemRef ItemOID="IT.LB.LBLOBXFL" OrderNumber="18" Mandatory="No"/>
        <ItemRef ItemOID="IT.LB.LBBLFL" OrderNumber="19" Mandatory="No"/>
        <ItemRef ItemOID="IT.LB.VISITNUM" OrderNumber="20" Mandatory="No"/>
        <ItemRef ItemOID="IT.LB.VISIT" OrderNumber="21" Mandatory="No"/>
        <ItemRef ItemOID="IT.LB.EPOCH" OrderNumber="22" Mandatory="No"/>
        <ItemRef ItemOID="IT.LB.LBDTC" OrderNumber="23" Mandatory="No"/>
        <ItemRef ItemOID="IT.LB.LBDY" OrderNumber="24" Mandatory="No"/>
        <def:leaf ID="LF.LB" xlink:href="lb.xpt">
          <def:title>lb.xpt</def:title>
        </def:leaf>
      </ItemGroupDef>
      <ItemGroupDef OID="IG.MH" Name="MH" Repeating="Yes" IsReferenceData="No" SASDatasetName="MH" Domain="MH" Purpose="Tabulation" def:Structure="One record per subject per medical history event" def:Class="EVENTS" def:ArchiveLocationID="LF.MH" def:StandardOID="STD.SDTM">
        <Description><TranslatedText xml:lang="en">Medical History</TranslatedText></Description>
        <ItemRef ItemOID="IT.MH.STUDYID" OrderNumber="1" Mandatory="Yes" KeySequence="1"/>
        <ItemRef ItemOID="IT.MH.DOMAIN" OrderNumber="2" Mandatory="No"/>
        <ItemRef ItemOID="IT.MH.USUBJID" OrderNumber="3" Mandatory="Yes" KeySequence="2"/>
        <ItemRef ItemOID="IT.MH.MHSEQ" OrderNumber="4" Mandatory="Yes" KeySequence="3"/>
        <ItemRef ItemOID="IT.MH.MHTERM" OrderNumber="5" Mandatory="No"/>
        <ItemRef ItemOID="IT.MH.MHDECOD" OrderNumber="6" Mandatory="No"/>
        <ItemRef ItemOID="IT.MH.MHCAT" OrderNumber="7" Mandatory="No"/>
        <ItemRef ItemOID="IT.MH.MHPRESP" OrderNumber="8" Mandatory="No"/>
        <ItemRef ItemOID="IT.MH.MHOCCUR" OrderNumber="9" Mandatory="No"/>
        <ItemRef ItemOID="IT.MH.MHSTDTC" OrderNumber="10" Mandatory="No"/>
        <ItemRef ItemOID="IT.MH.MHSTDY" OrderNumber="11" Mandatory="No"/>
        <ItemRef ItemOID="IT.MH.MHENRTPT" OrderNumber="12" Mandatory="No"/>
        <ItemRef ItemOID="IT.MH.MHENTPT" OrderNumber="13" Mandatory="No"/>
        <def:leaf ID="LF.MH" xlink:href="mh.xpt">
          <def:title>mh.xpt</def:title>
        </def:leaf>
      </ItemGroupDef>
      <ItemGroupDef OID="IG.PE" Name="PE" Repeating="Yes" IsReferenceData="No" SASDatasetName="PE" Domain="PE" Purpose="Tabulation" def:Structure="One record per subject per body system per visit" def:Class="FINDINGS" def:ArchiveLocationID="LF.PE" def:StandardOID="STD.SDTM">
        <Description><TranslatedText xml:lang="en">Physical Examination</TranslatedText></Description>
        <ItemRef ItemOID="IT.PE.STUDYID" OrderNumber="1" Mandatory="Yes" KeySequence="1"/>
        <ItemRef ItemOID="IT.PE.DOMAIN" OrderNumber="2" Mandatory="No"/>
        <ItemRef ItemOID="IT.PE.USUBJID" OrderNumber="3" Mandatory="Yes" KeySequence="2"/>
        <ItemRef ItemOID="IT.PE.PESEQ" OrderNumber="4" Mandatory="Yes" KeySequence="3"/>
        <ItemRef ItemOID="IT.PE.PETESTCD" OrderNumber="5" Mandatory="No"/>
        <ItemRef ItemOID="IT.PE.PETEST" OrderNumber="6" Mandatory="No"/>
        <ItemRef ItemOID="IT.PE.PEORRES" OrderNumber="7" Mandatory="No"/>
        <ItemRef ItemOID="IT.PE.PESTRESC" OrderNumber="8" Mandatory="No"/>
        <ItemRef ItemOID="IT.PE.PECLSIG" OrderNumber="9" Mandatory="No"/>
        <ItemRef ItemOID="IT.PE.VISITNUM" OrderNumber="10" Mandatory="No"/>
        <ItemRef ItemOID="IT.PE.VISIT" OrderNumber="11" Mandatory="No"/>
        <ItemRef ItemOID="IT.PE.EPOCH" OrderNumber="12" Mandatory="No"/>
        <ItemRef ItemOID="IT.PE.PEDTC" OrderNumber="13" Mandatory="No"/>
        <ItemRef ItemOID="IT.PE.PEDY" OrderNumber="14" Mandatory="No"/>
        <def:leaf ID="LF.PE" xlink:href="pe.xpt">
          <def:title>pe.xpt</def:title>
        </def:leaf>
      </ItemGroupDef>
      <ItemGroupDef OID="IG.RELREC" Name="RELREC" Repeating="Yes" IsReferenceData="No" SASDatasetName="RELREC" Purpose="Tabulation" def:Structure="One record per related record" def:Class="RELATIONSHIP" def:ArchiveLocationID="LF.RELREC" def:StandardOID="STD.SDTM">
        <Description><TranslatedText xml:lang="en">Related Records</TranslatedText></Description>
        <ItemRef ItemOID="IT.RELREC.STUDYID" OrderNumber="1" Mandatory="Yes" KeySequence="1"/>
        <ItemRef ItemOID="IT.RELREC.RDOMAIN" OrderNumber="2" Mandatory="Yes" KeySequence="3"/>
        <ItemRef ItemOID="IT.RELREC.USUBJID" OrderNumber="3" Mandatory="Yes" KeySequence="2"/>
        <ItemRef ItemOID="IT.RELREC.IDVAR" OrderNumber="4" Mandatory="Yes" KeySequence="5"/>
        <ItemRef ItemOID="IT.RELREC.IDVARVAL" OrderNumber="5" Mandatory="Yes" KeySequence="6"/>
        <ItemRef ItemOID="IT.RELREC.RELTYPE" OrderNumber="6" Mandatory="No"/>
        <ItemRef ItemOID="IT.RELREC.RELID" OrderNumber="7" Mandatory="Yes" KeySequence="4"/>
        <def:leaf ID="LF.RELREC" xlink:href="relrec.xpt">
          <def:title>relrec.xpt</def:title>
        </def:leaf>
      </ItemGroupDef>
      <ItemGroupDef OID="IG.RS" Name="RS" Repeating="Yes" IsReferenceData="No" SASDatasetName="RS" Domain="RS" Purpose="Tabulation" def:Structure="One record per subject per assessment per visit" def:Class="FINDINGS" def:ArchiveLocationID="LF.RS" def:StandardOID="STD.SDTM">
        <Description><TranslatedText xml:lang="en">Disease Response</TranslatedText></Description>
        <ItemRef ItemOID="IT.RS.STUDYID" OrderNumber="1" Mandatory="Yes" KeySequence="1"/>
        <ItemRef ItemOID="IT.RS.DOMAIN" OrderNumber="2" Mandatory="No"/>
        <ItemRef ItemOID="IT.RS.USUBJID" OrderNumber="3" Mandatory="Yes" KeySequence="2"/>
        <ItemRef ItemOID="IT.RS.RSSEQ" OrderNumber="4" Mandatory="Yes" KeySequence="3"/>
        <ItemRef ItemOID="IT.RS.RSTESTCD" OrderNumber="5" Mandatory="No"/>
        <ItemRef ItemOID="IT.RS.RSTEST" OrderNumber="6" Mandatory="No"/>
        <ItemRef ItemOID="IT.RS.RSCAT" OrderNumber="7" Mandatory="No"/>
        <ItemRef ItemOID="IT.RS.RSORRES" OrderNumber="8" Mandatory="No"/>
        <ItemRef ItemOID="IT.RS.RSSTRESC" OrderNumber="9" Mandatory="No"/>
        <ItemRef ItemOID="IT.RS.RSEVAL" OrderNumber="10" Mandatory="No"/>
        <ItemRef ItemOID="IT.RS.VISITNUM" OrderNumber="11" Mandatory="No"/>
        <ItemRef ItemOID="IT.RS.VISIT" OrderNumber="12" Mandatory="No"/>
        <ItemRef ItemOID="IT.RS.EPOCH" OrderNumber="13" Mandatory="No"/>
        <ItemRef ItemOID="IT.RS.RSDTC" OrderNumber="14" Mandatory="No"/>
        <ItemRef ItemOID="IT.RS.RSDY" OrderNumber="15" Mandatory="No"/>
        <def:leaf ID="LF.RS" xlink:href="rs.xpt">
          <def:title>rs.xpt</def:title>
        </def:leaf>
      </ItemGroupDef>
      <ItemGroupDef OID="IG.SE" Name="SE" Repeating="Yes" IsReferenceData="No" SASDatasetName="SE" Purpose="Tabulation" def:Structure="One record per subject per actual element" def:Class="SPECIAL PURPOSE" def:ArchiveLocationID="LF.SE" def:StandardOID="STD.SDTM">
        <Description><TranslatedText xml:lang="en">Subject Elements</TranslatedText></Description>
        <ItemRef ItemOID="IT.SE.STUDYID" OrderNumber="1" Mandatory="Yes" KeySequence="1"/>
        <ItemRef ItemOID="IT.SE.DOMAIN" OrderNumber="2" Mandatory="No"/>
        <ItemRef ItemOID="IT.SE.USUBJID" OrderNumber="3" Mandatory="Yes" KeySequence="2"/>
        <ItemRef ItemOID="IT.SE.SESEQ" OrderNumber="4" Mandatory="No"/>
        <ItemRef ItemOID="IT.SE.ETCD" OrderNumber="5" Mandatory="Yes" KeySequence="3"/>
        <ItemRef ItemOID="IT.SE.ELEMENT" OrderNumber="6" Mandatory="No"/>
        <ItemRef ItemOID="IT.SE.TAETORD" OrderNumber="7" Mandatory="No"/>
        <ItemRef ItemOID="IT.SE.EPOCH" OrderNumber="8" Mandatory="No"/>
        <ItemRef ItemOID="IT.SE.SESTDTC" OrderNumber="9" Mandatory="Yes" KeySequence="4"/>
        <ItemRef ItemOID="IT.SE.SEENDTC" OrderNumber="10" Mandatory="No"/>
        <ItemRef ItemOID="IT.SE.SESTDY" OrderNumber="11" Mandatory="No"/>
        <ItemRef ItemOID="IT.SE.SEENDY" OrderNumber="12" Mandatory="No"/>
        <def:leaf ID="LF.SE" xlink:href="se.xpt">
          <def:title>se.xpt</def:title>
        </def:leaf>
      </ItemGroupDef>
      <ItemGroupDef OID="IG.SU" Name="SU" Repeating="Yes" IsReferenceData="No" SASDatasetName="SU" Domain="SU" Purpose="Tabulation" def:Structure="One record per subject per substance use occurrence" def:Class="INTERVENTIONS" def:ArchiveLocationID="LF.SU" def:StandardOID="STD.SDTM" def:CommentOID="COM.SU.NOTIMING">
        <Description><TranslatedText xml:lang="en">Substance Use</TranslatedText></Description>
        <ItemRef ItemOID="IT.SU.STUDYID" OrderNumber="1" Mandatory="Yes" KeySequence="1"/>
        <ItemRef ItemOID="IT.SU.DOMAIN" OrderNumber="2" Mandatory="No"/>
        <ItemRef ItemOID="IT.SU.USUBJID" OrderNumber="3" Mandatory="Yes" KeySequence="2"/>
        <ItemRef ItemOID="IT.SU.SUSEQ" OrderNumber="4" Mandatory="Yes" KeySequence="3"/>
        <ItemRef ItemOID="IT.SU.SUTRT" OrderNumber="5" Mandatory="No"/>
        <ItemRef ItemOID="IT.SU.SUCAT" OrderNumber="6" Mandatory="No"/>
        <ItemRef ItemOID="IT.SU.SUSCAT" OrderNumber="7" Mandatory="No"/>
        <ItemRef ItemOID="IT.SU.SUPACKYR" OrderNumber="8" Mandatory="No"/>
        <def:leaf ID="LF.SU" xlink:href="su.xpt">
          <def:title>su.xpt</def:title>
        </def:leaf>
      </ItemGroupDef>
      <ItemGroupDef OID="IG.SUPPAE" Name="SUPPAE" Repeating="Yes" IsReferenceData="No" SASDatasetName="SUPPAE" Purpose="Tabulation" def:Structure="One record per parent record per qualifier" def:Class="RELATIONSHIP" def:ArchiveLocationID="LF.SUPPAE" def:StandardOID="STD.SDTM">
        <Description><TranslatedText xml:lang="en">Supplemental Qualifiers for AE</TranslatedText></Description>
        <ItemRef ItemOID="IT.SUPPAE.STUDYID" OrderNumber="1" Mandatory="Yes" KeySequence="1"/>
        <ItemRef ItemOID="IT.SUPPAE.RDOMAIN" OrderNumber="2" Mandatory="Yes" KeySequence="2"/>
        <ItemRef ItemOID="IT.SUPPAE.USUBJID" OrderNumber="3" Mandatory="Yes" KeySequence="3"/>
        <ItemRef ItemOID="IT.SUPPAE.IDVAR" OrderNumber="4" Mandatory="Yes" KeySequence="4"/>
        <ItemRef ItemOID="IT.SUPPAE.IDVARVAL" OrderNumber="5" Mandatory="Yes" KeySequence="5"/>
        <ItemRef ItemOID="IT.SUPPAE.QNAM" OrderNumber="6" Mandatory="Yes" KeySequence="6"/>
        <ItemRef ItemOID="IT.SUPPAE.QLABEL" OrderNumber="7" Mandatory="No"/>
        <ItemRef ItemOID="IT.SUPPAE.QVAL" OrderNumber="8" Mandatory="No"/>
        <ItemRef ItemOID="IT.SUPPAE.QORIG" OrderNumber="9" Mandatory="No"/>
        <ItemRef ItemOID="IT.SUPPAE.QEVAL" OrderNumber="10" Mandatory="No"/>
        <def:leaf ID="LF.SUPPAE" xlink:href="suppae.xpt">
          <def:title>suppae.xpt</def:title>
        </def:leaf>
      </ItemGroupDef>
      <ItemGroupDef OID="IG.SUPPCM" Name="SUPPCM" Repeating="Yes" IsReferenceData="No" SASDatasetName="SUPPCM" Purpose="Tabulation" def:Structure="One record per parent record per qualifier" def:Class="RELATIONSHIP" def:ArchiveLocationID="LF.SUPPCM" def:StandardOID="STD.SDTM">
        <Description><TranslatedText xml:lang="en">Supplemental Qualifiers for CM</TranslatedText></Description>
        <ItemRef ItemOID="IT.SUPPCM.STUDYID" OrderNumber="1" Mandatory="Yes" KeySequence="1"/>
        <ItemRef ItemOID="IT.SUPPCM.RDOMAIN" OrderNumber="2" Mandatory="Yes" KeySequence="2"/>
        <ItemRef ItemOID="IT.SUPPCM.USUBJID" OrderNumber="3" Mandatory="Yes" KeySequence="3"/>
        <ItemRef ItemOID="IT.SUPPCM.IDVAR" OrderNumber="4" Mandatory="Yes" KeySequence="4"/>
        <ItemRef ItemOID="IT.SUPPCM.IDVARVAL" OrderNumber="5" Mandatory="Yes" KeySequence="5"/>
        <ItemRef ItemOID="IT.SUPPCM.QNAM" OrderNumber="6" Mandatory="Yes" KeySequence="6"/>
        <ItemRef ItemOID="IT.SUPPCM.QLABEL" OrderNumber="7" Mandatory="No"/>
        <ItemRef ItemOID="IT.SUPPCM.QVAL" OrderNumber="8" Mandatory="No"/>
        <ItemRef ItemOID="IT.SUPPCM.QORIG" OrderNumber="9" Mandatory="No"/>
        <ItemRef ItemOID="IT.SUPPCM.QEVAL" OrderNumber="10" Mandatory="No"/>
        <def:leaf ID="LF.SUPPCM" xlink:href="suppcm.xpt">
          <def:title>suppcm.xpt</def:title>
        </def:leaf>
      </ItemGroupDef>
      <ItemGroupDef OID="IG.SUPPDM" Name="SUPPDM" Repeating="Yes" IsReferenceData="No" SASDatasetName="SUPPDM" Purpose="Tabulation" def:Structure="One record per subject per qualifier" def:Class="RELATIONSHIP" def:ArchiveLocationID="LF.SUPPDM" def:StandardOID="STD.SDTM">
        <Description><TranslatedText xml:lang="en">Supplemental Qualifiers for DM</TranslatedText></Description>
        <ItemRef ItemOID="IT.SUPPDM.STUDYID" OrderNumber="1" Mandatory="Yes" KeySequence="1"/>
        <ItemRef ItemOID="IT.SUPPDM.RDOMAIN" OrderNumber="2" Mandatory="Yes" KeySequence="2"/>
        <ItemRef ItemOID="IT.SUPPDM.USUBJID" OrderNumber="3" Mandatory="Yes" KeySequence="3"/>
        <ItemRef ItemOID="IT.SUPPDM.IDVAR" OrderNumber="4" Mandatory="No"/>
        <ItemRef ItemOID="IT.SUPPDM.IDVARVAL" OrderNumber="5" Mandatory="No"/>
        <ItemRef ItemOID="IT.SUPPDM.QNAM" OrderNumber="6" Mandatory="Yes" KeySequence="4"/>
        <ItemRef ItemOID="IT.SUPPDM.QLABEL" OrderNumber="7" Mandatory="No"/>
        <ItemRef ItemOID="IT.SUPPDM.QVAL" OrderNumber="8" Mandatory="No"/>
        <ItemRef ItemOID="IT.SUPPDM.QORIG" OrderNumber="9" Mandatory="No"/>
        <ItemRef ItemOID="IT.SUPPDM.QEVAL" OrderNumber="10" Mandatory="No"/>
        <def:leaf ID="LF.SUPPDM" xlink:href="suppdm.xpt">
          <def:title>suppdm.xpt</def:title>
        </def:leaf>
      </ItemGroupDef>
      <ItemGroupDef OID="IG.SUPPLB" Name="SUPPLB" Repeating="Yes" IsReferenceData="No" SASDatasetName="SUPPLB" Purpose="Tabulation" def:Structure="One record per parent record per qualifier" def:Class="RELATIONSHIP" def:ArchiveLocationID="LF.SUPPLB" def:StandardOID="STD.SDTM">
        <Description><TranslatedText xml:lang="en">Supplemental Qualifiers for LB</TranslatedText></Description>
        <ItemRef ItemOID="IT.SUPPLB.STUDYID" OrderNumber="1" Mandatory="Yes" KeySequence="1"/>
        <ItemRef ItemOID="IT.SUPPLB.RDOMAIN" OrderNumber="2" Mandatory="Yes" KeySequence="2"/>
        <ItemRef ItemOID="IT.SUPPLB.USUBJID" OrderNumber="3" Mandatory="Yes" KeySequence="3"/>
        <ItemRef ItemOID="IT.SUPPLB.IDVAR" OrderNumber="4" Mandatory="Yes" KeySequence="4"/>
        <ItemRef ItemOID="IT.SUPPLB.IDVARVAL" OrderNumber="5" Mandatory="Yes" KeySequence="5"/>
        <ItemRef ItemOID="IT.SUPPLB.QNAM" OrderNumber="6" Mandatory="Yes" KeySequence="6"/>
        <ItemRef ItemOID="IT.SUPPLB.QLABEL" OrderNumber="7" Mandatory="No"/>
        <ItemRef ItemOID="IT.SUPPLB.QVAL" OrderNumber="8" Mandatory="No"/>
        <ItemRef ItemOID="IT.SUPPLB.QORIG" OrderNumber="9" Mandatory="No"/>
        <ItemRef ItemOID="IT.SUPPLB.QEVAL" OrderNumber="10" Mandatory="No"/>
        <def:leaf ID="LF.SUPPLB" xlink:href="supplb.xpt">
          <def:title>supplb.xpt</def:title>
        </def:leaf>
      </ItemGroupDef>
      <ItemGroupDef OID="IG.SUPPSU" Name="SUPPSU" Repeating="Yes" IsReferenceData="No" SASDatasetName="SUPPSU" Purpose="Tabulation" def:Structure="One record per parent record per qualifier" def:Class="RELATIONSHIP" def:ArchiveLocationID="LF.SUPPSU" def:StandardOID="STD.SDTM">
        <Description><TranslatedText xml:lang="en">Supplemental Qualifiers for SU</TranslatedText></Description>
        <ItemRef ItemOID="IT.SUPPSU.STUDYID" OrderNumber="1" Mandatory="Yes" KeySequence="1"/>
        <ItemRef ItemOID="IT.SUPPSU.RDOMAIN" OrderNumber="2" Mandatory="Yes" KeySequence="2"/>
        <ItemRef ItemOID="IT.SUPPSU.USUBJID" OrderNumber="3" Mandatory="Yes" KeySequence="3"/>
        <ItemRef ItemOID="IT.SUPPSU.IDVAR" OrderNumber="4" Mandatory="Yes" KeySequence="4"/>
        <ItemRef ItemOID="IT.SUPPSU.IDVARVAL" OrderNumber="5" Mandatory="Yes" KeySequence="5"/>
        <ItemRef ItemOID="IT.SUPPSU.QNAM" OrderNumber="6" Mandatory="Yes" KeySequence="6"/>
        <ItemRef ItemOID="IT.SUPPSU.QLABEL" OrderNumber="7" Mandatory="No"/>
        <ItemRef ItemOID="IT.SUPPSU.QVAL" OrderNumber="8" Mandatory="No"/>
        <ItemRef ItemOID="IT.SUPPSU.QORIG" OrderNumber="9" Mandatory="No"/>
        <ItemRef ItemOID="IT.SUPPSU.QEVAL" OrderNumber="10" Mandatory="No"/>
        <def:leaf ID="LF.SUPPSU" xlink:href="suppsu.xpt">
          <def:title>suppsu.xpt</def:title>
        </def:leaf>
      </ItemGroupDef>
      <ItemGroupDef OID="IG.TA" Name="TA" Repeating="No" IsReferenceData="No" SASDatasetName="TA" Purpose="Tabulation" def:Structure="One record per planned element per arm" def:Class="TRIAL DESIGN" def:ArchiveLocationID="LF.TA" def:StandardOID="STD.SDTM">
        <Description><TranslatedText xml:lang="en">Trial Arms</TranslatedText></Description>
        <ItemRef ItemOID="IT.TA.STUDYID" OrderNumber="1" Mandatory="Yes" KeySequence="1"/>
        <ItemRef ItemOID="IT.TA.DOMAIN" OrderNumber="2" Mandatory="No"/>
        <ItemRef ItemOID="IT.TA.ARMCD" OrderNumber="3" Mandatory="Yes" KeySequence="2"/>
        <ItemRef ItemOID="IT.TA.ARM" OrderNumber="4" Mandatory="No"/>
        <ItemRef ItemOID="IT.TA.TAETORD" OrderNumber="5" Mandatory="Yes" KeySequence="3"/>
        <ItemRef ItemOID="IT.TA.ETCD" OrderNumber="6" Mandatory="No"/>
        <ItemRef ItemOID="IT.TA.ELEMENT" OrderNumber="7" Mandatory="No"/>
        <ItemRef ItemOID="IT.TA.TABRANCH" OrderNumber="8" Mandatory="No"/>
        <ItemRef ItemOID="IT.TA.TATRANS" OrderNumber="9" Mandatory="No"/>
        <ItemRef ItemOID="IT.TA.EPOCH" OrderNumber="10" Mandatory="No"/>
        <def:leaf ID="LF.TA" xlink:href="ta.xpt">
          <def:title>ta.xpt</def:title>
        </def:leaf>
      </ItemGroupDef>
      <ItemGroupDef OID="IG.TE" Name="TE" Repeating="No" IsReferenceData="No" SASDatasetName="TE" Purpose="Tabulation" def:Structure="One record per planned element" def:Class="TRIAL DESIGN" def:ArchiveLocationID="LF.TE" def:StandardOID="STD.SDTM">
        <Description><TranslatedText xml:lang="en">Trial Elements</TranslatedText></Description>
        <ItemRef ItemOID="IT.TE.STUDYID" OrderNumber="1" Mandatory="Yes" KeySequence="1"/>
        <ItemRef ItemOID="IT.TE.DOMAIN" OrderNumber="2" Mandatory="No"/>
        <ItemRef ItemOID="IT.TE.ETCD" OrderNumber="3" Mandatory="Yes" KeySequence="2"/>
        <ItemRef ItemOID="IT.TE.ELEMENT" OrderNumber="4" Mandatory="No"/>
        <ItemRef ItemOID="IT.TE.TESTRL" OrderNumber="5" Mandatory="No"/>
        <ItemRef ItemOID="IT.TE.TEENRL" OrderNumber="6" Mandatory="No"/>
        <ItemRef ItemOID="IT.TE.TEDUR" OrderNumber="7" Mandatory="No"/>
        <def:leaf ID="LF.TE" xlink:href="te.xpt">
          <def:title>te.xpt</def:title>
        </def:leaf>
      </ItemGroupDef>
      <ItemGroupDef OID="IG.TR" Name="TR" Repeating="Yes" IsReferenceData="No" SASDatasetName="TR" Domain="TR" Purpose="Tabulation" def:Structure="One record per subject per lesion per measurement per visit" def:Class="FINDINGS" def:ArchiveLocationID="LF.TR" def:StandardOID="STD.SDTM">
        <Description><TranslatedText xml:lang="en">Tumor Results</TranslatedText></Description>
        <ItemRef ItemOID="IT.TR.STUDYID" OrderNumber="1" Mandatory="Yes" KeySequence="1"/>
        <ItemRef ItemOID="IT.TR.DOMAIN" OrderNumber="2" Mandatory="No"/>
        <ItemRef ItemOID="IT.TR.USUBJID" OrderNumber="3" Mandatory="Yes" KeySequence="2"/>
        <ItemRef ItemOID="IT.TR.TRSEQ" OrderNumber="4" Mandatory="Yes" KeySequence="3"/>
        <ItemRef ItemOID="IT.TR.TRGRPID" OrderNumber="5" Mandatory="No"/>
        <ItemRef ItemOID="IT.TR.TRLNKID" OrderNumber="6" Mandatory="No"/>
        <ItemRef ItemOID="IT.TR.TRTESTCD" OrderNumber="7" Mandatory="No"/>
        <ItemRef ItemOID="IT.TR.TRTEST" OrderNumber="8" Mandatory="No"/>
        <ItemRef ItemOID="IT.TR.TRORRES" OrderNumber="9" Mandatory="No"/>
        <ItemRef ItemOID="IT.TR.TRORRESU" OrderNumber="10" Mandatory="No"/>
        <ItemRef ItemOID="IT.TR.TRSTRESC" OrderNumber="11" Mandatory="No"/>
        <ItemRef ItemOID="IT.TR.TRSTRESN" OrderNumber="12" Mandatory="No"/>
        <ItemRef ItemOID="IT.TR.TRSTRESU" OrderNumber="13" Mandatory="No"/>
        <ItemRef ItemOID="IT.TR.TRMETHOD" OrderNumber="14" Mandatory="No"/>
        <ItemRef ItemOID="IT.TR.TRLOBXFL" OrderNumber="15" Mandatory="No"/>
        <ItemRef ItemOID="IT.TR.TREVAL" OrderNumber="16" Mandatory="No"/>
        <ItemRef ItemOID="IT.TR.VISITNUM" OrderNumber="17" Mandatory="No"/>
        <ItemRef ItemOID="IT.TR.VISIT" OrderNumber="18" Mandatory="No"/>
        <ItemRef ItemOID="IT.TR.EPOCH" OrderNumber="19" Mandatory="No"/>
        <ItemRef ItemOID="IT.TR.TRDTC" OrderNumber="20" Mandatory="No"/>
        <ItemRef ItemOID="IT.TR.TRDY" OrderNumber="21" Mandatory="No"/>
        <def:leaf ID="LF.TR" xlink:href="tr.xpt">
          <def:title>tr.xpt</def:title>
        </def:leaf>
      </ItemGroupDef>
      <ItemGroupDef OID="IG.TS" Name="TS" Repeating="Yes" IsReferenceData="No" SASDatasetName="TS" Purpose="Tabulation" def:Structure="One record per trial summary parameter value" def:Class="TRIAL DESIGN" def:ArchiveLocationID="LF.TS" def:StandardOID="STD.SDTM">
        <Description><TranslatedText xml:lang="en">Trial Summary</TranslatedText></Description>
        <ItemRef ItemOID="IT.TS.STUDYID" OrderNumber="1" Mandatory="Yes" KeySequence="1"/>
        <ItemRef ItemOID="IT.TS.DOMAIN" OrderNumber="2" Mandatory="No"/>
        <ItemRef ItemOID="IT.TS.TSSEQ" OrderNumber="3" Mandatory="Yes" KeySequence="3"/>
        <ItemRef ItemOID="IT.TS.TSPARMCD" OrderNumber="4" Mandatory="Yes" KeySequence="2"/>
        <ItemRef ItemOID="IT.TS.TSPARM" OrderNumber="5" Mandatory="No"/>
        <ItemRef ItemOID="IT.TS.TSVAL" OrderNumber="6" Mandatory="No"/>
        <def:leaf ID="LF.TS" xlink:href="ts.xpt">
          <def:title>ts.xpt</def:title>
        </def:leaf>
      </ItemGroupDef>
      <ItemGroupDef OID="IG.TU" Name="TU" Repeating="Yes" IsReferenceData="No" SASDatasetName="TU" Domain="TU" Purpose="Tabulation" def:Structure="One record per subject per lesion per visit (tumor identification)" def:Class="FINDINGS" def:ArchiveLocationID="LF.TU" def:StandardOID="STD.SDTM">
        <Description><TranslatedText xml:lang="en">Tumor Identification</TranslatedText></Description>
        <ItemRef ItemOID="IT.TU.STUDYID" OrderNumber="1" Mandatory="Yes" KeySequence="1"/>
        <ItemRef ItemOID="IT.TU.DOMAIN" OrderNumber="2" Mandatory="No"/>
        <ItemRef ItemOID="IT.TU.USUBJID" OrderNumber="3" Mandatory="Yes" KeySequence="2"/>
        <ItemRef ItemOID="IT.TU.TUSEQ" OrderNumber="4" Mandatory="Yes" KeySequence="3"/>
        <ItemRef ItemOID="IT.TU.TUGRPID" OrderNumber="5" Mandatory="No"/>
        <ItemRef ItemOID="IT.TU.TULNKID" OrderNumber="6" Mandatory="No"/>
        <ItemRef ItemOID="IT.TU.TUTESTCD" OrderNumber="7" Mandatory="No"/>
        <ItemRef ItemOID="IT.TU.TUTEST" OrderNumber="8" Mandatory="No"/>
        <ItemRef ItemOID="IT.TU.TUORRES" OrderNumber="9" Mandatory="No"/>
        <ItemRef ItemOID="IT.TU.TULOC" OrderNumber="10" Mandatory="No"/>
        <ItemRef ItemOID="IT.TU.TUMETHOD" OrderNumber="11" Mandatory="No"/>
        <ItemRef ItemOID="IT.TU.VISITNUM" OrderNumber="12" Mandatory="No"/>
        <ItemRef ItemOID="IT.TU.VISIT" OrderNumber="13" Mandatory="No"/>
        <ItemRef ItemOID="IT.TU.EPOCH" OrderNumber="14" Mandatory="No"/>
        <ItemRef ItemOID="IT.TU.TUDTC" OrderNumber="15" Mandatory="No"/>
        <ItemRef ItemOID="IT.TU.TUDY" OrderNumber="16" Mandatory="No"/>
        <def:leaf ID="LF.TU" xlink:href="tu.xpt">
          <def:title>tu.xpt</def:title>
        </def:leaf>
      </ItemGroupDef>
      <ItemGroupDef OID="IG.VS" Name="VS" Repeating="Yes" IsReferenceData="No" SASDatasetName="VS" Domain="VS" Purpose="Tabulation" def:Structure="One record per subject per vital sign measurement per visit" def:Class="FINDINGS" def:ArchiveLocationID="LF.VS" def:StandardOID="STD.SDTM">
        <Description><TranslatedText xml:lang="en">Vital Signs</TranslatedText></Description>
        <ItemRef ItemOID="IT.VS.STUDYID" OrderNumber="1" Mandatory="Yes" KeySequence="1"/>
        <ItemRef ItemOID="IT.VS.DOMAIN" OrderNumber="2" Mandatory="No"/>
        <ItemRef ItemOID="IT.VS.USUBJID" OrderNumber="3" Mandatory="Yes" KeySequence="2"/>
        <ItemRef ItemOID="IT.VS.VSSEQ" OrderNumber="4" Mandatory="Yes" KeySequence="3"/>
        <ItemRef ItemOID="IT.VS.VSTESTCD" OrderNumber="5" Mandatory="No"/>
        <ItemRef ItemOID="IT.VS.VSTEST" OrderNumber="6" Mandatory="No"/>
        <ItemRef ItemOID="IT.VS.VSORRES" OrderNumber="7" Mandatory="No"/>
        <ItemRef ItemOID="IT.VS.VSORRESU" OrderNumber="8" Mandatory="No"/>
        <ItemRef ItemOID="IT.VS.VSSTRESC" OrderNumber="9" Mandatory="No"/>
        <ItemRef ItemOID="IT.VS.VSSTRESN" OrderNumber="10" Mandatory="No"/>
        <ItemRef ItemOID="IT.VS.VSSTRESU" OrderNumber="11" Mandatory="No"/>
        <ItemRef ItemOID="IT.VS.VISITNUM" OrderNumber="12" Mandatory="No"/>
        <ItemRef ItemOID="IT.VS.VISIT" OrderNumber="13" Mandatory="No"/>
        <ItemRef ItemOID="IT.VS.EPOCH" OrderNumber="14" Mandatory="No"/>
        <ItemRef ItemOID="IT.VS.VSDTC" OrderNumber="15" Mandatory="No"/>
        <ItemRef ItemOID="IT.VS.VSDY" OrderNumber="16" Mandatory="No"/>
        <def:leaf ID="LF.VS" xlink:href="vs.xpt">
          <def:title>vs.xpt</def:title>
        </def:leaf>
      </ItemGroupDef>
      <ItemDef OID="IT.AE.STUDYID" Name="STUDYID" SASFieldName="STUDYID" DataType="text" Length="13">
        <Description><TranslatedText xml:lang="en">Study Identifier</TranslatedText></Description>
        <def:Origin Type="Assigned"/>
      </ItemDef>
      <ItemDef OID="IT.AE.DOMAIN" Name="DOMAIN" SASFieldName="DOMAIN" DataType="text" Length="2">
        <Description><TranslatedText xml:lang="en">Domain Abbreviation</TranslatedText></Description>
        <def:Origin Type="Assigned"/>
      </ItemDef>
      <ItemDef OID="IT.AE.USUBJID" Name="USUBJID" SASFieldName="USUBJID" DataType="text" Length="26">
        <Description><TranslatedText xml:lang="en">Unique Subject Identifier</TranslatedText></Description>
        <def:Origin Type="Assigned"/>
      </ItemDef>
      <ItemDef OID="IT.AE.AESEQ" Name="AESEQ" SASFieldName="AESEQ" DataType="integer" Length="8">
        <Description><TranslatedText xml:lang="en">Sequence Number</TranslatedText></Description>
        <def:Origin Type="Derived"/>
      </ItemDef>
      <ItemDef OID="IT.AE.AETERM" Name="AETERM" SASFieldName="AETERM" DataType="text" Length="40">
        <Description><TranslatedText xml:lang="en">Reported Term for the Adverse Event</TranslatedText></Description>
        <def:Origin Type="Derived"/>
      </ItemDef>
      <ItemDef OID="IT.AE.AELLT" Name="AELLT" SASFieldName="AELLT" DataType="text" Length="27">
        <Description><TranslatedText xml:lang="en">Lowest Level Term</TranslatedText></Description>
        <def:Origin Type="Assigned"/>
      </ItemDef>
      <ItemDef OID="IT.AE.AELLTCD" Name="AELLTCD" SASFieldName="AELLTCD" DataType="float" Length="8">
        <Description><TranslatedText xml:lang="en">Lowest Level Term Code</TranslatedText></Description>
        <def:Origin Type="Derived"/>
      </ItemDef>
      <ItemDef OID="IT.AE.AEDECOD" Name="AEDECOD" SASFieldName="AEDECOD" DataType="text" Length="36">
        <Description><TranslatedText xml:lang="en">Dictionary-Derived Term</TranslatedText></Description>
        <def:Origin Type="Assigned"/>
      </ItemDef>
      <ItemDef OID="IT.AE.AEPTCD" Name="AEPTCD" SASFieldName="AEPTCD" DataType="float" Length="8">
        <Description><TranslatedText xml:lang="en">Preferred Term Code</TranslatedText></Description>
        <def:Origin Type="Derived"/>
      </ItemDef>
      <ItemDef OID="IT.AE.AEHLT" Name="AEHLT" SASFieldName="AEHLT" DataType="text" Length="36">
        <Description><TranslatedText xml:lang="en">High Level Term</TranslatedText></Description>
        <def:Origin Type="Assigned"/>
      </ItemDef>
      <ItemDef OID="IT.AE.AEHLTCD" Name="AEHLTCD" SASFieldName="AEHLTCD" DataType="float" Length="8">
        <Description><TranslatedText xml:lang="en">High Level Term Code</TranslatedText></Description>
        <def:Origin Type="Derived"/>
      </ItemDef>
      <ItemDef OID="IT.AE.AEHLGT" Name="AEHLGT" SASFieldName="AEHLGT" DataType="text" Length="42">
        <Description><TranslatedText xml:lang="en">High Level Group Term</TranslatedText></Description>
        <def:Origin Type="Derived"/>
      </ItemDef>
      <ItemDef OID="IT.AE.AEHLGTCD" Name="AEHLGTCD" SASFieldName="AEHLGTCD" DataType="float" Length="8">
        <Description><TranslatedText xml:lang="en">High Level Group Term Code</TranslatedText></Description>
        <def:Origin Type="Derived"/>
      </ItemDef>
      <ItemDef OID="IT.AE.AECAT" Name="AECAT" SASFieldName="AECAT" DataType="text" Length="14">
        <Description><TranslatedText xml:lang="en">Category for Adverse Event</TranslatedText></Description>
        <def:Origin Type="Derived"/>
      </ItemDef>
      <ItemDef OID="IT.AE.AEBODSYS" Name="AEBODSYS" SASFieldName="AEBODSYS" DataType="text" Length="52">
        <Description><TranslatedText xml:lang="en">Body System or Organ Class</TranslatedText></Description>
        <def:Origin Type="Assigned"/>
      </ItemDef>
      <ItemDef OID="IT.AE.AEBDSYCD" Name="AEBDSYCD" SASFieldName="AEBDSYCD" DataType="float" Length="8">
        <Description><TranslatedText xml:lang="en">Body System or Organ Class Code</TranslatedText></Description>
        <def:Origin Type="Derived"/>
      </ItemDef>
      <ItemDef OID="IT.AE.AESOC" Name="AESOC" SASFieldName="AESOC" DataType="text" Length="52">
        <Description><TranslatedText xml:lang="en">Primary System Organ Class</TranslatedText></Description>
        <def:Origin Type="Assigned"/>
      </ItemDef>
      <ItemDef OID="IT.AE.AESOCCD" Name="AESOCCD" SASFieldName="AESOCCD" DataType="float" Length="8">
        <Description><TranslatedText xml:lang="en">Primary System Organ Class Code</TranslatedText></Description>
        <def:Origin Type="Derived"/>
      </ItemDef>
      <ItemDef OID="IT.AE.AESEV" Name="AESEV" SASFieldName="AESEV" DataType="text" Length="8">
        <Description><TranslatedText xml:lang="en">Severity/Intensity</TranslatedText></Description>
        <def:Origin Type="Derived"/>
      </ItemDef>
      <ItemDef OID="IT.AE.AESER" Name="AESER" SASFieldName="AESER" DataType="text" Length="1">
        <Description><TranslatedText xml:lang="en">Serious Event</TranslatedText></Description>
        <def:Origin Type="Derived"/>
      </ItemDef>
      <ItemDef OID="IT.AE.AEACN" Name="AEACN" SASFieldName="AEACN" DataType="text" Length="16">
        <Description><TranslatedText xml:lang="en">Action Taken with Study Treatment</TranslatedText></Description>
        <def:Origin Type="Derived"/>
      </ItemDef>
      <ItemDef OID="IT.AE.AEREL" Name="AEREL" SASFieldName="AEREL" DataType="text" Length="1">
        <Description><TranslatedText xml:lang="en">Causality</TranslatedText></Description>
        <def:Origin Type="Derived"/>
      </ItemDef>
      <ItemDef OID="IT.AE.AEOUT" Name="AEOUT" SASFieldName="AEOUT" DataType="text" Length="18">
        <Description><TranslatedText xml:lang="en">Outcome of Adverse Event</TranslatedText></Description>
        <def:Origin Type="Derived"/>
      </ItemDef>
      <ItemDef OID="IT.AE.AESCONG" Name="AESCONG" SASFieldName="AESCONG" DataType="text" Length="1">
        <Description><TranslatedText xml:lang="en">Congenital Anomaly or Birth Defect</TranslatedText></Description>
        <def:Origin Type="Derived"/>
      </ItemDef>
      <ItemDef OID="IT.AE.AESDISAB" Name="AESDISAB" SASFieldName="AESDISAB" DataType="text" Length="1">
        <Description><TranslatedText xml:lang="en">Causes Persistent or Significant Disabil</TranslatedText></Description>
        <def:Origin Type="Derived"/>
      </ItemDef>
      <ItemDef OID="IT.AE.AESDTH" Name="AESDTH" SASFieldName="AESDTH" DataType="text" Length="1">
        <Description><TranslatedText xml:lang="en">Results in Death</TranslatedText></Description>
        <def:Origin Type="Derived"/>
      </ItemDef>
      <ItemDef OID="IT.AE.AESHOSP" Name="AESHOSP" SASFieldName="AESHOSP" DataType="text" Length="1">
        <Description><TranslatedText xml:lang="en">Requires or Prolongs Inpatient Hospitali</TranslatedText></Description>
        <def:Origin Type="Derived"/>
      </ItemDef>
      <ItemDef OID="IT.AE.AESLIFE" Name="AESLIFE" SASFieldName="AESLIFE" DataType="text" Length="1">
        <Description><TranslatedText xml:lang="en">Is Life Threatening</TranslatedText></Description>
        <def:Origin Type="Derived"/>
      </ItemDef>
      <ItemDef OID="IT.AE.AESMIE" Name="AESMIE" SASFieldName="AESMIE" DataType="text" Length="1">
        <Description><TranslatedText xml:lang="en">Other Medically Important Serious Event</TranslatedText></Description>
        <def:Origin Type="Derived"/>
      </ItemDef>
      <ItemDef OID="IT.AE.AETOXGR" Name="AETOXGR" SASFieldName="AETOXGR" DataType="text" Length="1">
        <Description><TranslatedText xml:lang="en">Standard Toxicity Grade</TranslatedText></Description>
        <def:Origin Type="Derived"/>
      </ItemDef>
      <ItemDef OID="IT.AE.EPOCH" Name="EPOCH" SASFieldName="EPOCH" DataType="text" Length="9">
        <Description><TranslatedText xml:lang="en">Epoch</TranslatedText></Description>
        <def:Origin Type="Assigned"/>
      </ItemDef>
      <ItemDef OID="IT.AE.AESTDTC" Name="AESTDTC" SASFieldName="AESTDTC" DataType="date" Length="10">
        <Description><TranslatedText xml:lang="en">Start Date/Time of Adverse Event</TranslatedText></Description>
        <def:Origin Type="Collected"/>
      </ItemDef>
      <ItemDef OID="IT.AE.AEENDTC" Name="AEENDTC" SASFieldName="AEENDTC" DataType="date" Length="10">
        <Description><TranslatedText xml:lang="en">End Date/Time of Adverse Event</TranslatedText></Description>
        <def:Origin Type="Collected"/>
      </ItemDef>
      <ItemDef OID="IT.AE.AESTDY" Name="AESTDY" SASFieldName="AESTDY" DataType="integer" Length="8">
        <Description><TranslatedText xml:lang="en">Study Day of Start of Adverse Event</TranslatedText></Description>
        <def:Origin Type="Collected"/>
      </ItemDef>
      <ItemDef OID="IT.AE.AEENDY" Name="AEENDY" SASFieldName="AEENDY" DataType="integer" Length="8">
        <Description><TranslatedText xml:lang="en">Study Day of End of Adverse Event</TranslatedText></Description>
        <def:Origin Type="Collected"/>
      </ItemDef>
      <ItemDef OID="IT.CM.STUDYID" Name="STUDYID" SASFieldName="STUDYID" DataType="text" Length="13">
        <Description><TranslatedText xml:lang="en">Study Identifier</TranslatedText></Description>
        <def:Origin Type="Assigned"/>
      </ItemDef>
      <ItemDef OID="IT.CM.DOMAIN" Name="DOMAIN" SASFieldName="DOMAIN" DataType="text" Length="2">
        <Description><TranslatedText xml:lang="en">Domain Abbreviation</TranslatedText></Description>
        <def:Origin Type="Assigned"/>
      </ItemDef>
      <ItemDef OID="IT.CM.USUBJID" Name="USUBJID" SASFieldName="USUBJID" DataType="text" Length="26">
        <Description><TranslatedText xml:lang="en">Unique Subject Identifier</TranslatedText></Description>
        <def:Origin Type="Assigned"/>
      </ItemDef>
      <ItemDef OID="IT.CM.CMSEQ" Name="CMSEQ" SASFieldName="CMSEQ" DataType="integer" Length="8">
        <Description><TranslatedText xml:lang="en">Sequence Number</TranslatedText></Description>
        <def:Origin Type="Derived"/>
      </ItemDef>
      <ItemDef OID="IT.CM.CMTRT" Name="CMTRT" SASFieldName="CMTRT" DataType="text" Length="23">
        <Description><TranslatedText xml:lang="en">Reported Name of Drug, Med, or Therapy</TranslatedText></Description>
        <def:Origin Type="Collected"/>
      </ItemDef>
      <ItemDef OID="IT.CM.CMDECOD" Name="CMDECOD" SASFieldName="CMDECOD" DataType="text" Length="23">
        <Description><TranslatedText xml:lang="en">Standardized Medication Name</TranslatedText></Description>
        <def:Origin Type="Assigned"/>
      </ItemDef>
      <ItemDef OID="IT.CM.CMCAT" Name="CMCAT" SASFieldName="CMCAT" DataType="text" Length="22">
        <Description><TranslatedText xml:lang="en">Category for Medication</TranslatedText></Description>
        <def:Origin Type="Collected"/>
      </ItemDef>
      <ItemDef OID="IT.CM.CMINDC" Name="CMINDC" SASFieldName="CMINDC" DataType="text" Length="30">
        <Description><TranslatedText xml:lang="en">Indication</TranslatedText></Description>
        <def:Origin Type="Collected"/>
      </ItemDef>
      <ItemDef OID="IT.CM.CMROUTE" Name="CMROUTE" SASFieldName="CMROUTE" DataType="text" Length="4">
        <Description><TranslatedText xml:lang="en">Route of Administration</TranslatedText></Description>
        <def:Origin Type="Collected"/>
      </ItemDef>
      <ItemDef OID="IT.CM.EPOCH" Name="EPOCH" SASFieldName="EPOCH" DataType="text" Length="9">
        <Description><TranslatedText xml:lang="en">Epoch</TranslatedText></Description>
        <def:Origin Type="Assigned"/>
      </ItemDef>
      <ItemDef OID="IT.CM.CMSTDTC" Name="CMSTDTC" SASFieldName="CMSTDTC" DataType="date" Length="10">
        <Description><TranslatedText xml:lang="en">Start Date/Time of Medication</TranslatedText></Description>
        <def:Origin Type="Collected"/>
      </ItemDef>
      <ItemDef OID="IT.CM.CMENDTC" Name="CMENDTC" SASFieldName="CMENDTC" DataType="text" Length="10">
        <Description><TranslatedText xml:lang="en">End Date/Time of Medication</TranslatedText></Description>
        <def:Origin Type="Collected"/>
      </ItemDef>
      <ItemDef OID="IT.CM.CMSTDY" Name="CMSTDY" SASFieldName="CMSTDY" DataType="integer" Length="8">
        <Description><TranslatedText xml:lang="en">Study Day of Start of Medication</TranslatedText></Description>
        <def:Origin Type="Collected"/>
      </ItemDef>
      <ItemDef OID="IT.CM.CMENDY" Name="CMENDY" SASFieldName="CMENDY" DataType="integer" Length="8">
        <Description><TranslatedText xml:lang="en">Study Day of End of Medication</TranslatedText></Description>
        <def:Origin Type="Collected"/>
      </ItemDef>
      <ItemDef OID="IT.CM.CMENRTPT" Name="CMENRTPT" SASFieldName="CMENRTPT" DataType="text" Length="7">
        <Description><TranslatedText xml:lang="en">End Relative to Reference Time Point</TranslatedText></Description>
        <def:Origin Type="Collected"/>
      </ItemDef>
      <ItemDef OID="IT.CM.CMENTPT" Name="CMENTPT" SASFieldName="CMENTPT" DataType="text" Length="13">
        <Description><TranslatedText xml:lang="en">End Reference Time Point</TranslatedText></Description>
        <def:Origin Type="Collected"/>
      </ItemDef>
      <ItemDef OID="IT.CM.CMATC" Name="CMATC" SASFieldName="CMATC" DataType="text" Length="7" def:CommentOID="COM.CM.ATC">
        <Description><TranslatedText xml:lang="en">ATC Classification Code</TranslatedText></Description>
        <def:Origin Type="Assigned"/>
      </ItemDef>
      <ItemDef OID="IT.DA.STUDYID" Name="STUDYID" SASFieldName="STUDYID" DataType="text" Length="13">
        <Description><TranslatedText xml:lang="en">Study Identifier</TranslatedText></Description>
        <def:Origin Type="Assigned"/>
      </ItemDef>
      <ItemDef OID="IT.DA.DOMAIN" Name="DOMAIN" SASFieldName="DOMAIN" DataType="text" Length="2">
        <Description><TranslatedText xml:lang="en">Domain Abbreviation</TranslatedText></Description>
        <def:Origin Type="Assigned"/>
      </ItemDef>
      <ItemDef OID="IT.DA.USUBJID" Name="USUBJID" SASFieldName="USUBJID" DataType="text" Length="26">
        <Description><TranslatedText xml:lang="en">Unique Subject Identifier</TranslatedText></Description>
        <def:Origin Type="Assigned"/>
      </ItemDef>
      <ItemDef OID="IT.DA.DASEQ" Name="DASEQ" SASFieldName="DASEQ" DataType="integer" Length="8">
        <Description><TranslatedText xml:lang="en">Sequence Number</TranslatedText></Description>
        <def:Origin Type="Derived"/>
      </ItemDef>
      <ItemDef OID="IT.DA.DATESTCD" Name="DATESTCD" SASFieldName="DATESTCD" DataType="text" Length="7">
        <Description><TranslatedText xml:lang="en">Drug Accountability Test Short Name</TranslatedText></Description>
        <def:Origin Type="Collected"/>
      </ItemDef>
      <ItemDef OID="IT.DA.DATEST" Name="DATEST" SASFieldName="DATEST" DataType="text" Length="16">
        <Description><TranslatedText xml:lang="en">Drug Accountability Test Name</TranslatedText></Description>
        <def:Origin Type="Collected"/>
      </ItemDef>
      <ItemDef OID="IT.DA.DACAT" Name="DACAT" SASFieldName="DACAT" DataType="text" Length="19">
        <Description><TranslatedText xml:lang="en">Category for Drug Accountability</TranslatedText></Description>
        <def:Origin Type="Collected"/>
      </ItemDef>
      <ItemDef OID="IT.DA.DAORRES" Name="DAORRES" SASFieldName="DAORRES" DataType="text" Length="4">
        <Description><TranslatedText xml:lang="en">Result or Finding in Original Units</TranslatedText></Description>
        <def:Origin Type="Collected"/>
      </ItemDef>
      <ItemDef OID="IT.DA.DAORRESU" Name="DAORRESU" SASFieldName="DAORRESU" DataType="text" Length="5" def:CommentOID="COM.DA.UNITS">
        <Description><TranslatedText xml:lang="en">Original Units</TranslatedText></Description>
        <def:Origin Type="Collected"/>
      </ItemDef>
      <ItemDef OID="IT.DA.DASTRESC" Name="DASTRESC" SASFieldName="DASTRESC" DataType="text" Length="4">
        <Description><TranslatedText xml:lang="en">Character Result/Finding in Std Format</TranslatedText></Description>
        <def:Origin Type="Collected"/>
      </ItemDef>
      <ItemDef OID="IT.DA.DASTRESN" Name="DASTRESN" SASFieldName="DASTRESN" DataType="float" Length="8">
        <Description><TranslatedText xml:lang="en">Numeric Result/Finding in Standard Units</TranslatedText></Description>
        <def:Origin Type="Collected"/>
      </ItemDef>
      <ItemDef OID="IT.DA.DASTRESU" Name="DASTRESU" SASFieldName="DASTRESU" DataType="text" Length="5" def:CommentOID="COM.DA.UNITS">
        <Description><TranslatedText xml:lang="en">Standard Units</TranslatedText></Description>
        <def:Origin Type="Collected"/>
      </ItemDef>
      <ItemDef OID="IT.DA.VISITNUM" Name="VISITNUM" SASFieldName="VISITNUM" DataType="integer" Length="8">
        <Description><TranslatedText xml:lang="en">Visit Number</TranslatedText></Description>
        <def:Origin Type="Assigned"/>
      </ItemDef>
      <ItemDef OID="IT.DA.VISIT" Name="VISIT" SASFieldName="VISIT" DataType="text" Length="5">
        <Description><TranslatedText xml:lang="en">Visit Name</TranslatedText></Description>
        <def:Origin Type="Assigned"/>
      </ItemDef>
      <ItemDef OID="IT.DA.EPOCH" Name="EPOCH" SASFieldName="EPOCH" DataType="text" Length="9">
        <Description><TranslatedText xml:lang="en">Epoch</TranslatedText></Description>
        <def:Origin Type="Assigned"/>
      </ItemDef>
      <ItemDef OID="IT.DA.DADTC" Name="DADTC" SASFieldName="DADTC" DataType="date" Length="10">
        <Description><TranslatedText xml:lang="en">Date/Time of Collection</TranslatedText></Description>
        <def:Origin Type="Collected"/>
      </ItemDef>
      <ItemDef OID="IT.DA.DADY" Name="DADY" SASFieldName="DADY" DataType="integer" Length="8">
        <Description><TranslatedText xml:lang="en">Study Day of Accountability Assessment</TranslatedText></Description>
        <def:Origin Type="Collected"/>
      </ItemDef>
      <ItemDef OID="IT.DD.STUDYID" Name="STUDYID" SASFieldName="STUDYID" DataType="text" Length="13">
        <Description><TranslatedText xml:lang="en">Study Identifier</TranslatedText></Description>
        <def:Origin Type="Assigned"/>
      </ItemDef>
      <ItemDef OID="IT.DD.DOMAIN" Name="DOMAIN" SASFieldName="DOMAIN" DataType="text" Length="2">
        <Description><TranslatedText xml:lang="en">Domain Abbreviation</TranslatedText></Description>
        <def:Origin Type="Assigned"/>
      </ItemDef>
      <ItemDef OID="IT.DD.USUBJID" Name="USUBJID" SASFieldName="USUBJID" DataType="text" Length="26">
        <Description><TranslatedText xml:lang="en">Unique Subject Identifier</TranslatedText></Description>
        <def:Origin Type="Assigned"/>
      </ItemDef>
      <ItemDef OID="IT.DD.DDSEQ" Name="DDSEQ" SASFieldName="DDSEQ" DataType="integer" Length="8">
        <Description><TranslatedText xml:lang="en">Sequence Number</TranslatedText></Description>
        <def:Origin Type="Derived"/>
      </ItemDef>
      <ItemDef OID="IT.DD.DDTESTCD" Name="DDTESTCD" SASFieldName="DDTESTCD" DataType="text" Length="6">
        <Description><TranslatedText xml:lang="en">Death Detail Test Short Name</TranslatedText></Description>
        <def:Origin Type="Collected"/>
      </ItemDef>
      <ItemDef OID="IT.DD.DDTEST" Name="DDTEST" SASFieldName="DDTEST" DataType="text" Length="22">
        <Description><TranslatedText xml:lang="en">Death Detail Test Name</TranslatedText></Description>
        <def:Origin Type="Collected"/>
      </ItemDef>
      <ItemDef OID="IT.DD.DDORRES" Name="DDORRES" SASFieldName="DDORRES" DataType="text" Length="19">
        <Description><TranslatedText xml:lang="en">Result or Finding in Original Units</TranslatedText></Description>
        <def:Origin Type="Collected"/>
      </ItemDef>
      <ItemDef OID="IT.DD.DDSTRESC" Name="DDSTRESC" SASFieldName="DDSTRESC" DataType="text" Length="19">
        <Description><TranslatedText xml:lang="en">Character Result/Finding in Std Format</TranslatedText></Description>
        <def:Origin Type="Collected"/>
      </ItemDef>
      <ItemDef OID="IT.DD.EPOCH" Name="EPOCH" SASFieldName="EPOCH" DataType="text" Length="9">
        <Description><TranslatedText xml:lang="en">Epoch</TranslatedText></Description>
        <def:Origin Type="Assigned"/>
      </ItemDef>
      <ItemDef OID="IT.DD.DDDTC" Name="DDDTC" SASFieldName="DDDTC" DataType="date" Length="10">
        <Description><TranslatedText xml:lang="en">Date/Time of Death</TranslatedText></Description>
        <def:Origin Type="Collected"/>
      </ItemDef>
      <ItemDef OID="IT.DD.DDDY" Name="DDDY" SASFieldName="DDDY" DataType="integer" Length="8">
        <Description><TranslatedText xml:lang="en">Study Day of Death</TranslatedText></Description>
        <def:Origin Type="Collected"/>
      </ItemDef>
      <ItemDef OID="IT.DM.STUDYID" Name="STUDYID" SASFieldName="STUDYID" DataType="text" Length="13">
        <Description><TranslatedText xml:lang="en">Study Identifier</TranslatedText></Description>
        <def:Origin Type="Assigned"/>
      </ItemDef>
      <ItemDef OID="IT.DM.DOMAIN" Name="DOMAIN" SASFieldName="DOMAIN" DataType="text" Length="2">
        <Description><TranslatedText xml:lang="en">Domain Abbreviation</TranslatedText></Description>
        <def:Origin Type="Assigned"/>
      </ItemDef>
      <ItemDef OID="IT.DM.USUBJID" Name="USUBJID" SASFieldName="USUBJID" DataType="text" Length="26">
        <Description><TranslatedText xml:lang="en">Unique Subject Identifier</TranslatedText></Description>
        <def:Origin Type="Assigned"/>
      </ItemDef>
      <ItemDef OID="IT.DM.SUBJID" Name="SUBJID" SASFieldName="SUBJID" DataType="text" Length="4">
        <Description><TranslatedText xml:lang="en">Subject Identifier for the Study</TranslatedText></Description>
        <def:Origin Type="Assigned"/>
      </ItemDef>
      <ItemDef OID="IT.DM.RFSTDTC" Name="RFSTDTC" SASFieldName="RFSTDTC" DataType="date" Length="10">
        <Description><TranslatedText xml:lang="en">Subject Reference Start Date/Time</TranslatedText></Description>
        <def:Origin Type="Collected"/>
      </ItemDef>
      <ItemDef OID="IT.DM.RFENDTC" Name="RFENDTC" SASFieldName="RFENDTC" DataType="date" Length="10">
        <Description><TranslatedText xml:lang="en">Subject Reference End Date/Time</TranslatedText></Description>
        <def:Origin Type="Collected"/>
      </ItemDef>
      <ItemDef OID="IT.DM.RFXSTDTC" Name="RFXSTDTC" SASFieldName="RFXSTDTC" DataType="date" Length="10" def:CommentOID="COM.DM.UNDOSED">
        <Description><TranslatedText xml:lang="en">Date/Time of First Study Treatment</TranslatedText></Description>
        <def:Origin Type="Collected"/>
      </ItemDef>
      <ItemDef OID="IT.DM.RFXENDTC" Name="RFXENDTC" SASFieldName="RFXENDTC" DataType="date" Length="10">
        <Description><TranslatedText xml:lang="en">Date/Time of Last Study Treatment</TranslatedText></Description>
        <def:Origin Type="Collected"/>
      </ItemDef>
      <ItemDef OID="IT.DM.RFICDTC" Name="RFICDTC" SASFieldName="RFICDTC" DataType="date" Length="10">
        <Description><TranslatedText xml:lang="en">Date/Time of Informed Consent</TranslatedText></Description>
        <def:Origin Type="Collected"/>
      </ItemDef>
      <ItemDef OID="IT.DM.RFPENDTC" Name="RFPENDTC" SASFieldName="RFPENDTC" DataType="date" Length="10">
        <Description><TranslatedText xml:lang="en">Date/Time of End of Participation</TranslatedText></Description>
        <def:Origin Type="Collected"/>
      </ItemDef>
      <ItemDef OID="IT.DM.DTHDTC" Name="DTHDTC" SASFieldName="DTHDTC" DataType="date" Length="10">
        <Description><TranslatedText xml:lang="en">Date/Time of Death</TranslatedText></Description>
        <def:Origin Type="Collected"/>
      </ItemDef>
      <ItemDef OID="IT.DM.DTHFL" Name="DTHFL" SASFieldName="DTHFL" DataType="text" Length="1">
        <Description><TranslatedText xml:lang="en">Subject Death Flag</TranslatedText></Description>
        <def:Origin Type="Derived"/>
      </ItemDef>
      <ItemDef OID="IT.DM.SITEID" Name="SITEID" SASFieldName="SITEID" DataType="text" Length="7">
        <Description><TranslatedText xml:lang="en">Study Site Identifier</TranslatedText></Description>
        <def:Origin Type="Assigned"/>
      </ItemDef>
      <ItemDef OID="IT.DM.AGE" Name="AGE" SASFieldName="AGE" DataType="integer" Length="8">
        <Description><TranslatedText xml:lang="en">Age</TranslatedText></Description>
        <def:Origin Type="Derived"/>
      </ItemDef>
      <ItemDef OID="IT.DM.AGEU" Name="AGEU" SASFieldName="AGEU" DataType="text" Length="5">
        <Description><TranslatedText xml:lang="en">Age Units</TranslatedText></Description>
        <def:Origin Type="Derived"/>
      </ItemDef>
      <ItemDef OID="IT.DM.SEX" Name="SEX" SASFieldName="SEX" DataType="text" Length="1">
        <Description><TranslatedText xml:lang="en">Sex</TranslatedText></Description>
        <def:Origin Type="Collected"/>
      </ItemDef>
      <ItemDef OID="IT.DM.RACE" Name="RACE" SASFieldName="RACE" DataType="text" Length="32">
        <Description><TranslatedText xml:lang="en">Race</TranslatedText></Description>
        <def:Origin Type="Collected"/>
      </ItemDef>
      <ItemDef OID="IT.DM.ETHNIC" Name="ETHNIC" SASFieldName="ETHNIC" DataType="text" Length="22">
        <Description><TranslatedText xml:lang="en">Ethnicity</TranslatedText></Description>
        <def:Origin Type="Collected"/>
      </ItemDef>
      <ItemDef OID="IT.DM.ARMCD" Name="ARMCD" SASFieldName="ARMCD" DataType="text" Length="9">
        <Description><TranslatedText xml:lang="en">Planned Arm Code</TranslatedText></Description>
        <def:Origin Type="Assigned"/>
      </ItemDef>
      <ItemDef OID="IT.DM.ARM" Name="ARM" SASFieldName="ARM" DataType="text" Length="24">
        <Description><TranslatedText xml:lang="en">Description of Planned Arm</TranslatedText></Description>
        <def:Origin Type="Assigned"/>
      </ItemDef>
      <ItemDef OID="IT.DM.ACTARMCD" Name="ACTARMCD" SASFieldName="ACTARMCD" DataType="text" Length="9">
        <Description><TranslatedText xml:lang="en">Actual Arm Code</TranslatedText></Description>
        <def:Origin Type="Assigned"/>
      </ItemDef>
      <ItemDef OID="IT.DM.ACTARM" Name="ACTARM" SASFieldName="ACTARM" DataType="text" Length="24">
        <Description><TranslatedText xml:lang="en">Description of Actual Arm</TranslatedText></Description>
        <def:Origin Type="Assigned"/>
      </ItemDef>
      <ItemDef OID="IT.DM.ARMNRS" Name="ARMNRS" SASFieldName="ARMNRS" DataType="text" Length="1" def:CommentOID="COM.DM.ARMNRS">
        <Description><TranslatedText xml:lang="en">Reason Arm and/or Epoch Not Collected</TranslatedText></Description>
        <def:Origin Type="Derived"/>
      </ItemDef>
      <ItemDef OID="IT.DM.COUNTRY" Name="COUNTRY" SASFieldName="COUNTRY" DataType="text" Length="3">
        <Description><TranslatedText xml:lang="en">Country</TranslatedText></Description>
        <def:Origin Type="Collected"/>
      </ItemDef>
      <ItemDef OID="IT.DM.DMDTC" Name="DMDTC" SASFieldName="DMDTC" DataType="date" Length="10">
        <Description><TranslatedText xml:lang="en">Date/Time of Collection</TranslatedText></Description>
        <def:Origin Type="Collected"/>
      </ItemDef>
      <ItemDef OID="IT.DM.DMDY" Name="DMDY" SASFieldName="DMDY" DataType="integer" Length="8">
        <Description><TranslatedText xml:lang="en">Study Day of Collection</TranslatedText></Description>
        <def:Origin Type="Collected"/>
      </ItemDef>
      <ItemDef OID="IT.DS.STUDYID" Name="STUDYID" SASFieldName="STUDYID" DataType="text" Length="13">
        <Description><TranslatedText xml:lang="en">Study Identifier</TranslatedText></Description>
        <def:Origin Type="Assigned"/>
      </ItemDef>
      <ItemDef OID="IT.DS.DOMAIN" Name="DOMAIN" SASFieldName="DOMAIN" DataType="text" Length="2">
        <Description><TranslatedText xml:lang="en">Domain Abbreviation</TranslatedText></Description>
        <def:Origin Type="Assigned"/>
      </ItemDef>
      <ItemDef OID="IT.DS.USUBJID" Name="USUBJID" SASFieldName="USUBJID" DataType="text" Length="26">
        <Description><TranslatedText xml:lang="en">Unique Subject Identifier</TranslatedText></Description>
        <def:Origin Type="Assigned"/>
      </ItemDef>
      <ItemDef OID="IT.DS.DSSEQ" Name="DSSEQ" SASFieldName="DSSEQ" DataType="integer" Length="8">
        <Description><TranslatedText xml:lang="en">Sequence Number</TranslatedText></Description>
        <def:Origin Type="Derived"/>
      </ItemDef>
      <ItemDef OID="IT.DS.DSTERM" Name="DSTERM" SASFieldName="DSTERM" DataType="text" Length="25">
        <Description><TranslatedText xml:lang="en">Reported Term for the Disposition Event</TranslatedText></Description>
        <def:Origin Type="Collected"/>
      </ItemDef>
      <ItemDef OID="IT.DS.DSDECOD" Name="DSDECOD" SASFieldName="DSDECOD" DataType="text" Length="25">
        <Description><TranslatedText xml:lang="en">Standardized Disposition Term</TranslatedText></Description>
        <def:Origin Type="Assigned"/>
      </ItemDef>
      <ItemDef OID="IT.DS.DSCAT" Name="DSCAT" SASFieldName="DSCAT" DataType="text" Length="18">
        <Description><TranslatedText xml:lang="en">Category for Disposition Event</TranslatedText></Description>
        <def:Origin Type="Collected"/>
      </ItemDef>
      <ItemDef OID="IT.DS.DSSCAT" Name="DSSCAT" SASFieldName="DSSCAT" DataType="text" Length="19">
        <Description><TranslatedText xml:lang="en">Subcategory for Disposition Event</TranslatedText></Description>
        <def:Origin Type="Collected"/>
      </ItemDef>
      <ItemDef OID="IT.DS.EPOCH" Name="EPOCH" SASFieldName="EPOCH" DataType="text" Length="9">
        <Description><TranslatedText xml:lang="en">Epoch</TranslatedText></Description>
        <def:Origin Type="Assigned"/>
      </ItemDef>
      <ItemDef OID="IT.DS.DSSTDTC" Name="DSSTDTC" SASFieldName="DSSTDTC" DataType="date" Length="10">
        <Description><TranslatedText xml:lang="en">Start Date/Time of Disposition Event</TranslatedText></Description>
        <def:Origin Type="Collected"/>
      </ItemDef>
      <ItemDef OID="IT.DS.DSSTDY" Name="DSSTDY" SASFieldName="DSSTDY" DataType="integer" Length="8">
        <Description><TranslatedText xml:lang="en">Study Day of Start of Disposition Event</TranslatedText></Description>
        <def:Origin Type="Collected"/>
      </ItemDef>
      <ItemDef OID="IT.DV.STUDYID" Name="STUDYID" SASFieldName="STUDYID" DataType="text" Length="13">
        <Description><TranslatedText xml:lang="en">Study Identifier</TranslatedText></Description>
        <def:Origin Type="Assigned"/>
      </ItemDef>
      <ItemDef OID="IT.DV.DOMAIN" Name="DOMAIN" SASFieldName="DOMAIN" DataType="text" Length="2">
        <Description><TranslatedText xml:lang="en">Domain Abbreviation</TranslatedText></Description>
        <def:Origin Type="Assigned"/>
      </ItemDef>
      <ItemDef OID="IT.DV.USUBJID" Name="USUBJID" SASFieldName="USUBJID" DataType="text" Length="26">
        <Description><TranslatedText xml:lang="en">Unique Subject Identifier</TranslatedText></Description>
        <def:Origin Type="Assigned"/>
      </ItemDef>
      <ItemDef OID="IT.DV.DVSEQ" Name="DVSEQ" SASFieldName="DVSEQ" DataType="integer" Length="8">
        <Description><TranslatedText xml:lang="en">Sequence Number</TranslatedText></Description>
        <def:Origin Type="Derived"/>
      </ItemDef>
      <ItemDef OID="IT.DV.DVTERM" Name="DVTERM" SASFieldName="DVTERM" DataType="text" Length="77">
        <Description><TranslatedText xml:lang="en">Reported Term for the Protocol Deviation</TranslatedText></Description>
        <def:Origin Type="Collected"/>
      </ItemDef>
      <ItemDef OID="IT.DV.DVDECOD" Name="DVDECOD" SASFieldName="DVDECOD" DataType="text" Length="39">
        <Description><TranslatedText xml:lang="en">Standardized Term for the Protocol Devia</TranslatedText></Description>
        <def:Origin Type="Assigned"/>
      </ItemDef>
      <ItemDef OID="IT.DV.DVCAT" Name="DVCAT" SASFieldName="DVCAT" DataType="text" Length="5">
        <Description><TranslatedText xml:lang="en">Category for Protocol Deviation</TranslatedText></Description>
        <def:Origin Type="Collected"/>
      </ItemDef>
      <ItemDef OID="IT.DV.EPOCH" Name="EPOCH" SASFieldName="EPOCH" DataType="text" Length="9">
        <Description><TranslatedText xml:lang="en">Epoch</TranslatedText></Description>
        <def:Origin Type="Assigned"/>
      </ItemDef>
      <ItemDef OID="IT.DV.DVSTDTC" Name="DVSTDTC" SASFieldName="DVSTDTC" DataType="date" Length="10">
        <Description><TranslatedText xml:lang="en">Start Date/Time of Protocol Deviation</TranslatedText></Description>
        <def:Origin Type="Collected"/>
      </ItemDef>
      <ItemDef OID="IT.DV.DVSTDY" Name="DVSTDY" SASFieldName="DVSTDY" DataType="integer" Length="8">
        <Description><TranslatedText xml:lang="en">Study Day of Start of Protocol Deviation</TranslatedText></Description>
        <def:Origin Type="Collected"/>
      </ItemDef>
      <ItemDef OID="IT.EX.STUDYID" Name="STUDYID" SASFieldName="STUDYID" DataType="text" Length="13">
        <Description><TranslatedText xml:lang="en">Study Identifier</TranslatedText></Description>
        <def:Origin Type="Assigned"/>
      </ItemDef>
      <ItemDef OID="IT.EX.DOMAIN" Name="DOMAIN" SASFieldName="DOMAIN" DataType="text" Length="2">
        <Description><TranslatedText xml:lang="en">Domain Abbreviation</TranslatedText></Description>
        <def:Origin Type="Assigned"/>
      </ItemDef>
      <ItemDef OID="IT.EX.USUBJID" Name="USUBJID" SASFieldName="USUBJID" DataType="text" Length="26">
        <Description><TranslatedText xml:lang="en">Unique Subject Identifier</TranslatedText></Description>
        <def:Origin Type="Assigned"/>
      </ItemDef>
      <ItemDef OID="IT.EX.EXSEQ" Name="EXSEQ" SASFieldName="EXSEQ" DataType="integer" Length="8">
        <Description><TranslatedText xml:lang="en">Sequence Number</TranslatedText></Description>
        <def:Origin Type="Derived"/>
      </ItemDef>
      <ItemDef OID="IT.EX.EXTRT" Name="EXTRT" SASFieldName="EXTRT" DataType="text" Length="11">
        <Description><TranslatedText xml:lang="en">Name of Treatment</TranslatedText></Description>
        <def:Origin Type="Collected"/>
      </ItemDef>
      <ItemDef OID="IT.EX.EXDOSE" Name="EXDOSE" SASFieldName="EXDOSE" DataType="float" Length="8">
        <Description><TranslatedText xml:lang="en">Dose per Administration</TranslatedText></Description>
        <def:Origin Type="Collected"/>
      </ItemDef>
      <ItemDef OID="IT.EX.EXDOSU" Name="EXDOSU" SASFieldName="EXDOSU" DataType="text" Length="5">
        <Description><TranslatedText xml:lang="en">Dose Units</TranslatedText></Description>
        <def:Origin Type="Collected"/>
      </ItemDef>
      <ItemDef OID="IT.EX.EXDOSFRM" Name="EXDOSFRM" SASFieldName="EXDOSFRM" DataType="text" Length="19">
        <Description><TranslatedText xml:lang="en">Dose Form</TranslatedText></Description>
        <def:Origin Type="Collected"/>
      </ItemDef>
      <ItemDef OID="IT.EX.EXROUTE" Name="EXROUTE" SASFieldName="EXROUTE" DataType="text" Length="11">
        <Description><TranslatedText xml:lang="en">Route of Administration</TranslatedText></Description>
        <def:Origin Type="Collected"/>
      </ItemDef>
      <ItemDef OID="IT.EX.VISITNUM" Name="VISITNUM" SASFieldName="VISITNUM" DataType="integer" Length="8" def:CommentOID="COM.EX.VISIT">
        <Description><TranslatedText xml:lang="en">Visit Number</TranslatedText></Description>
        <def:Origin Type="Assigned"/>
      </ItemDef>
      <ItemDef OID="IT.EX.VISIT" Name="VISIT" SASFieldName="VISIT" DataType="text" Length="5" def:CommentOID="COM.EX.VISIT">
        <Description><TranslatedText xml:lang="en">Visit Name</TranslatedText></Description>
        <def:Origin Type="Assigned"/>
      </ItemDef>
      <ItemDef OID="IT.EX.EPOCH" Name="EPOCH" SASFieldName="EPOCH" DataType="text" Length="9">
        <Description><TranslatedText xml:lang="en">Epoch</TranslatedText></Description>
        <def:Origin Type="Assigned"/>
      </ItemDef>
      <ItemDef OID="IT.EX.EXSTDTC" Name="EXSTDTC" SASFieldName="EXSTDTC" DataType="date" Length="10">
        <Description><TranslatedText xml:lang="en">Start Date/Time of Treatment</TranslatedText></Description>
        <def:Origin Type="Collected"/>
      </ItemDef>
      <ItemDef OID="IT.EX.EXENDTC" Name="EXENDTC" SASFieldName="EXENDTC" DataType="date" Length="10">
        <Description><TranslatedText xml:lang="en">End Date/Time of Treatment</TranslatedText></Description>
        <def:Origin Type="Collected"/>
      </ItemDef>
      <ItemDef OID="IT.EX.EXSTDY" Name="EXSTDY" SASFieldName="EXSTDY" DataType="integer" Length="8">
        <Description><TranslatedText xml:lang="en">Study Day of Start of Treatment</TranslatedText></Description>
        <def:Origin Type="Collected"/>
      </ItemDef>
      <ItemDef OID="IT.EX.EXENDY" Name="EXENDY" SASFieldName="EXENDY" DataType="integer" Length="8">
        <Description><TranslatedText xml:lang="en">Study Day of End of Treatment</TranslatedText></Description>
        <def:Origin Type="Collected"/>
      </ItemDef>
      <ItemDef OID="IT.LB.STUDYID" Name="STUDYID" SASFieldName="STUDYID" DataType="text" Length="13">
        <Description><TranslatedText xml:lang="en">Study Identifier</TranslatedText></Description>
        <def:Origin Type="Assigned"/>
      </ItemDef>
      <ItemDef OID="IT.LB.DOMAIN" Name="DOMAIN" SASFieldName="DOMAIN" DataType="text" Length="2">
        <Description><TranslatedText xml:lang="en">Domain Abbreviation</TranslatedText></Description>
        <def:Origin Type="Assigned"/>
      </ItemDef>
      <ItemDef OID="IT.LB.USUBJID" Name="USUBJID" SASFieldName="USUBJID" DataType="text" Length="26">
        <Description><TranslatedText xml:lang="en">Unique Subject Identifier</TranslatedText></Description>
        <def:Origin Type="Assigned"/>
      </ItemDef>
      <ItemDef OID="IT.LB.LBSEQ" Name="LBSEQ" SASFieldName="LBSEQ" DataType="integer" Length="8">
        <Description><TranslatedText xml:lang="en">Sequence Number</TranslatedText></Description>
        <def:Origin Type="Derived"/>
      </ItemDef>
      <ItemDef OID="IT.LB.LBTESTCD" Name="LBTESTCD" SASFieldName="LBTESTCD" DataType="text" Length="6">
        <Description><TranslatedText xml:lang="en">Lab Test or Examination Short Name</TranslatedText></Description>
        <def:Origin Type="Collected"/>
      </ItemDef>
      <ItemDef OID="IT.LB.LBTEST" Name="LBTEST" SASFieldName="LBTEST" DataType="text" Length="26">
        <Description><TranslatedText xml:lang="en">Lab Test or Examination Name</TranslatedText></Description>
        <def:Origin Type="Collected"/>
      </ItemDef>
      <ItemDef OID="IT.LB.LBCAT" Name="LBCAT" SASFieldName="LBCAT" DataType="text" Length="11">
        <Description><TranslatedText xml:lang="en">Category for Lab Test</TranslatedText></Description>
        <def:Origin Type="Collected"/>
      </ItemDef>
      <ItemDef OID="IT.LB.LBORRES" Name="LBORRES" SASFieldName="LBORRES" DataType="text" Length="4">
        <Description><TranslatedText xml:lang="en">Result or Finding in Original Units</TranslatedText></Description>
        <def:Origin Type="Collected"/>
      </ItemDef>
      <ItemDef OID="IT.LB.LBORRESU" Name="LBORRESU" SASFieldName="LBORRESU" DataType="text" Length="6">
        <Description><TranslatedText xml:lang="en">Original Units</TranslatedText></Description>
        <def:Origin Type="Collected"/>
      </ItemDef>
      <ItemDef OID="IT.LB.LBORNRLO" Name="LBORNRLO" SASFieldName="LBORNRLO" DataType="text" Length="4">
        <Description><TranslatedText xml:lang="en">Reference Range Lower Limit-Orig Unit</TranslatedText></Description>
        <def:Origin Type="Collected"/>
      </ItemDef>
      <ItemDef OID="IT.LB.LBORNRHI" Name="LBORNRHI" SASFieldName="LBORNRHI" DataType="text" Length="4">
        <Description><TranslatedText xml:lang="en">Reference Range Upper Limit-Orig Unit</TranslatedText></Description>
        <def:Origin Type="Collected"/>
      </ItemDef>
      <ItemDef OID="IT.LB.LBSTRESC" Name="LBSTRESC" SASFieldName="LBSTRESC" DataType="text" Length="4">
        <Description><TranslatedText xml:lang="en">Character Result/Finding in Std Format</TranslatedText></Description>
        <def:Origin Type="Collected"/>
      </ItemDef>
      <ItemDef OID="IT.LB.LBSTRESN" Name="LBSTRESN" SASFieldName="LBSTRESN" DataType="float" Length="8">
        <Description><TranslatedText xml:lang="en">Numeric Result/Finding in Standard Units</TranslatedText></Description>
        <def:Origin Type="Collected"/>
      </ItemDef>
      <ItemDef OID="IT.LB.LBSTRESU" Name="LBSTRESU" SASFieldName="LBSTRESU" DataType="text" Length="6">
        <Description><TranslatedText xml:lang="en">Standard Units</TranslatedText></Description>
        <def:Origin Type="Collected"/>
      </ItemDef>
      <ItemDef OID="IT.LB.LBSTNRLO" Name="LBSTNRLO" SASFieldName="LBSTNRLO" DataType="float" Length="8">
        <Description><TranslatedText xml:lang="en">Reference Range Lower Limit in Std Unit</TranslatedText></Description>
        <def:Origin Type="Collected"/>
      </ItemDef>
      <ItemDef OID="IT.LB.LBSTNRHI" Name="LBSTNRHI" SASFieldName="LBSTNRHI" DataType="float" Length="8">
        <Description><TranslatedText xml:lang="en">Reference Range Upper Limit in Std Unit</TranslatedText></Description>
        <def:Origin Type="Collected"/>
      </ItemDef>
      <ItemDef OID="IT.LB.LBNRIND" Name="LBNRIND" SASFieldName="LBNRIND" DataType="text" Length="6">
        <Description><TranslatedText xml:lang="en">Reference Range Indicator</TranslatedText></Description>
        <def:Origin Type="Collected"/>
      </ItemDef>
      <ItemDef OID="IT.LB.LBLOBXFL" Name="LBLOBXFL" SASFieldName="LBLOBXFL" DataType="text" Length="1">
        <Description><TranslatedText xml:lang="en">Last Observation Before Exposure Flag</TranslatedText></Description>
        <def:Origin Type="Derived"/>
      </ItemDef>
      <ItemDef OID="IT.LB.LBBLFL" Name="LBBLFL" SASFieldName="LBBLFL" DataType="text" Length="1">
        <Description><TranslatedText xml:lang="en">Baseline Flag</TranslatedText></Description>
        <def:Origin Type="Derived"/>
      </ItemDef>
      <ItemDef OID="IT.LB.VISITNUM" Name="VISITNUM" SASFieldName="VISITNUM" DataType="integer" Length="8">
        <Description><TranslatedText xml:lang="en">Visit Number</TranslatedText></Description>
        <def:Origin Type="Assigned"/>
      </ItemDef>
      <ItemDef OID="IT.LB.VISIT" Name="VISIT" SASFieldName="VISIT" DataType="text" Length="11">
        <Description><TranslatedText xml:lang="en">Visit Name</TranslatedText></Description>
        <def:Origin Type="Assigned"/>
      </ItemDef>
      <ItemDef OID="IT.LB.EPOCH" Name="EPOCH" SASFieldName="EPOCH" DataType="text" Length="9">
        <Description><TranslatedText xml:lang="en">Epoch</TranslatedText></Description>
        <def:Origin Type="Assigned"/>
      </ItemDef>
      <ItemDef OID="IT.LB.LBDTC" Name="LBDTC" SASFieldName="LBDTC" DataType="date" Length="10">
        <Description><TranslatedText xml:lang="en">Date/Time of Specimen Collection</TranslatedText></Description>
        <def:Origin Type="Collected"/>
      </ItemDef>
      <ItemDef OID="IT.LB.LBDY" Name="LBDY" SASFieldName="LBDY" DataType="integer" Length="8">
        <Description><TranslatedText xml:lang="en">Study Day of Specimen Collection</TranslatedText></Description>
        <def:Origin Type="Collected"/>
      </ItemDef>
      <ItemDef OID="IT.MH.STUDYID" Name="STUDYID" SASFieldName="STUDYID" DataType="text" Length="13">
        <Description><TranslatedText xml:lang="en">Study Identifier</TranslatedText></Description>
        <def:Origin Type="Assigned"/>
      </ItemDef>
      <ItemDef OID="IT.MH.DOMAIN" Name="DOMAIN" SASFieldName="DOMAIN" DataType="text" Length="2">
        <Description><TranslatedText xml:lang="en">Domain Abbreviation</TranslatedText></Description>
        <def:Origin Type="Assigned"/>
      </ItemDef>
      <ItemDef OID="IT.MH.USUBJID" Name="USUBJID" SASFieldName="USUBJID" DataType="text" Length="26">
        <Description><TranslatedText xml:lang="en">Unique Subject Identifier</TranslatedText></Description>
        <def:Origin Type="Assigned"/>
      </ItemDef>
      <ItemDef OID="IT.MH.MHSEQ" Name="MHSEQ" SASFieldName="MHSEQ" DataType="integer" Length="8">
        <Description><TranslatedText xml:lang="en">Sequence Number</TranslatedText></Description>
        <def:Origin Type="Derived"/>
      </ItemDef>
      <ItemDef OID="IT.MH.MHTERM" Name="MHTERM" SASFieldName="MHTERM" DataType="text" Length="50">
        <Description><TranslatedText xml:lang="en">Reported Term for the Medical History</TranslatedText></Description>
        <def:Origin Type="Collected"/>
      </ItemDef>
      <ItemDef OID="IT.MH.MHDECOD" Name="MHDECOD" SASFieldName="MHDECOD" DataType="text" Length="50">
        <Description><TranslatedText xml:lang="en">Dictionary-Derived Term</TranslatedText></Description>
        <def:Origin Type="Assigned"/>
      </ItemDef>
      <ItemDef OID="IT.MH.MHCAT" Name="MHCAT" SASFieldName="MHCAT" DataType="text" Length="17">
        <Description><TranslatedText xml:lang="en">Category for Medical History</TranslatedText></Description>
        <def:Origin Type="Collected"/>
      </ItemDef>
      <ItemDef OID="IT.MH.MHPRESP" Name="MHPRESP" SASFieldName="MHPRESP" DataType="text" Length="1">
        <Description><TranslatedText xml:lang="en">Medical History Pre-Specified</TranslatedText></Description>
        <def:Origin Type="Collected"/>
      </ItemDef>
      <ItemDef OID="IT.MH.MHOCCUR" Name="MHOCCUR" SASFieldName="MHOCCUR" DataType="text" Length="1">
        <Description><TranslatedText xml:lang="en">Medical History Occurrence</TranslatedText></Description>
        <def:Origin Type="Collected"/>
      </ItemDef>
      <ItemDef OID="IT.MH.MHSTDTC" Name="MHSTDTC" SASFieldName="MHSTDTC" DataType="text" Length="7">
        <Description><TranslatedText xml:lang="en">Start Date/Time of Medical History Event</TranslatedText></Description>
        <def:Origin Type="Collected"/>
      </ItemDef>
      <ItemDef OID="IT.MH.MHSTDY" Name="MHSTDY" SASFieldName="MHSTDY" DataType="integer" Length="8">
        <Description><TranslatedText xml:lang="en">Study Day of Start of Medical History Ev</TranslatedText></Description>
        <def:Origin Type="Collected"/>
      </ItemDef>
      <ItemDef OID="IT.MH.MHENRTPT" Name="MHENRTPT" SASFieldName="MHENRTPT" DataType="text" Length="7">
        <Description><TranslatedText xml:lang="en">End Relative to Reference Time Point</TranslatedText></Description>
        <def:Origin Type="Collected"/>
      </ItemDef>
      <ItemDef OID="IT.MH.MHENTPT" Name="MHENTPT" SASFieldName="MHENTPT" DataType="text" Length="13">
        <Description><TranslatedText xml:lang="en">End Reference Time Point</TranslatedText></Description>
        <def:Origin Type="Collected"/>
      </ItemDef>
      <ItemDef OID="IT.PE.STUDYID" Name="STUDYID" SASFieldName="STUDYID" DataType="text" Length="13">
        <Description><TranslatedText xml:lang="en">Study Identifier</TranslatedText></Description>
        <def:Origin Type="Assigned"/>
      </ItemDef>
      <ItemDef OID="IT.PE.DOMAIN" Name="DOMAIN" SASFieldName="DOMAIN" DataType="text" Length="2">
        <Description><TranslatedText xml:lang="en">Domain Abbreviation</TranslatedText></Description>
        <def:Origin Type="Assigned"/>
      </ItemDef>
      <ItemDef OID="IT.PE.USUBJID" Name="USUBJID" SASFieldName="USUBJID" DataType="text" Length="26">
        <Description><TranslatedText xml:lang="en">Unique Subject Identifier</TranslatedText></Description>
        <def:Origin Type="Assigned"/>
      </ItemDef>
      <ItemDef OID="IT.PE.PESEQ" Name="PESEQ" SASFieldName="PESEQ" DataType="integer" Length="8">
        <Description><TranslatedText xml:lang="en">Sequence Number</TranslatedText></Description>
        <def:Origin Type="Derived"/>
      </ItemDef>
      <ItemDef OID="IT.PE.PETESTCD" Name="PETESTCD" SASFieldName="PETESTCD" DataType="text" Length="5">
        <Description><TranslatedText xml:lang="en">Body System Examined Short Name</TranslatedText></Description>
        <def:Origin Type="Collected"/>
      </ItemDef>
      <ItemDef OID="IT.PE.PETEST" Name="PETEST" SASFieldName="PETEST" DataType="text" Length="12">
        <Description><TranslatedText xml:lang="en">Body System Examined</TranslatedText></Description>
        <def:Origin Type="Collected"/>
      </ItemDef>
      <ItemDef OID="IT.PE.PEORRES" Name="PEORRES" SASFieldName="PEORRES" DataType="text" Length="51">
        <Description><TranslatedText xml:lang="en">Result or Finding in Original Units</TranslatedText></Description>
        <def:Origin Type="Collected"/>
      </ItemDef>
      <ItemDef OID="IT.PE.PESTRESC" Name="PESTRESC" SASFieldName="PESTRESC" DataType="text" Length="8">
        <Description><TranslatedText xml:lang="en">Character Result/Finding in Std Format</TranslatedText></Description>
        <def:Origin Type="Collected"/>
      </ItemDef>
      <ItemDef OID="IT.PE.PECLSIG" Name="PECLSIG" SASFieldName="PECLSIG" DataType="text" Length="1" def:CommentOID="COM.PE.CLSIG">
        <Description><TranslatedText xml:lang="en">Clinically Significant</TranslatedText></Description>
        <def:Origin Type="Collected"/>
      </ItemDef>
      <ItemDef OID="IT.PE.VISITNUM" Name="VISITNUM" SASFieldName="VISITNUM" DataType="integer" Length="8">
        <Description><TranslatedText xml:lang="en">Visit Number</TranslatedText></Description>
        <def:Origin Type="Assigned"/>
      </ItemDef>
      <ItemDef OID="IT.PE.VISIT" Name="VISIT" SASFieldName="VISIT" DataType="text" Length="18">
        <Description><TranslatedText xml:lang="en">Visit Name</TranslatedText></Description>
        <def:Origin Type="Assigned"/>
      </ItemDef>
      <ItemDef OID="IT.PE.EPOCH" Name="EPOCH" SASFieldName="EPOCH" DataType="text" Length="9">
        <Description><TranslatedText xml:lang="en">Epoch</TranslatedText></Description>
        <def:Origin Type="Assigned"/>
      </ItemDef>
      <ItemDef OID="IT.PE.PEDTC" Name="PEDTC" SASFieldName="PEDTC" DataType="date" Length="10">
        <Description><TranslatedText xml:lang="en">Date/Time of Examination</TranslatedText></Description>
        <def:Origin Type="Collected"/>
      </ItemDef>
      <ItemDef OID="IT.PE.PEDY" Name="PEDY" SASFieldName="PEDY" DataType="integer" Length="8">
        <Description><TranslatedText xml:lang="en">Study Day of Examination</TranslatedText></Description>
        <def:Origin Type="Collected"/>
      </ItemDef>
      <ItemDef OID="IT.RELREC.STUDYID" Name="STUDYID" SASFieldName="STUDYID" DataType="text" Length="13">
        <Description><TranslatedText xml:lang="en">Study Identifier</TranslatedText></Description>
        <def:Origin Type="Assigned"/>
      </ItemDef>
      <ItemDef OID="IT.RELREC.RDOMAIN" Name="RDOMAIN" SASFieldName="RDOMAIN" DataType="text" Length="2">
        <Description><TranslatedText xml:lang="en">Related Domain Abbreviation</TranslatedText></Description>
        <def:Origin Type="Assigned"/>
      </ItemDef>
      <ItemDef OID="IT.RELREC.USUBJID" Name="USUBJID" SASFieldName="USUBJID" DataType="text" Length="26">
        <Description><TranslatedText xml:lang="en">Unique Subject Identifier</TranslatedText></Description>
        <def:Origin Type="Assigned"/>
      </ItemDef>
      <ItemDef OID="IT.RELREC.IDVAR" Name="IDVAR" SASFieldName="IDVAR" DataType="text" Length="7">
        <Description><TranslatedText xml:lang="en">Identifying Variable</TranslatedText></Description>
        <def:Origin Type="Derived"/>
      </ItemDef>
      <ItemDef OID="IT.RELREC.IDVARVAL" Name="IDVARVAL" SASFieldName="IDVARVAL" DataType="text" Length="11">
        <Description><TranslatedText xml:lang="en">Identifying Variable Value</TranslatedText></Description>
        <def:Origin Type="Derived"/>
      </ItemDef>
      <ItemDef OID="IT.RELREC.RELTYPE" Name="RELTYPE" SASFieldName="RELTYPE" DataType="text" Length="1">
        <Description><TranslatedText xml:lang="en">Relationship Type</TranslatedText></Description>
        <def:Origin Type="Derived"/>
      </ItemDef>
      <ItemDef OID="IT.RELREC.RELID" Name="RELID" SASFieldName="RELID" DataType="text" Length="42">
        <Description><TranslatedText xml:lang="en">Relationship Identifier</TranslatedText></Description>
        <def:Origin Type="Derived"/>
      </ItemDef>
      <ItemDef OID="IT.RS.STUDYID" Name="STUDYID" SASFieldName="STUDYID" DataType="text" Length="13">
        <Description><TranslatedText xml:lang="en">Study Identifier</TranslatedText></Description>
        <def:Origin Type="Assigned"/>
      </ItemDef>
      <ItemDef OID="IT.RS.DOMAIN" Name="DOMAIN" SASFieldName="DOMAIN" DataType="text" Length="2">
        <Description><TranslatedText xml:lang="en">Domain Abbreviation</TranslatedText></Description>
        <def:Origin Type="Assigned"/>
      </ItemDef>
      <ItemDef OID="IT.RS.USUBJID" Name="USUBJID" SASFieldName="USUBJID" DataType="text" Length="26">
        <Description><TranslatedText xml:lang="en">Unique Subject Identifier</TranslatedText></Description>
        <def:Origin Type="Assigned"/>
      </ItemDef>
      <ItemDef OID="IT.RS.RSSEQ" Name="RSSEQ" SASFieldName="RSSEQ" DataType="integer" Length="8">
        <Description><TranslatedText xml:lang="en">Sequence Number</TranslatedText></Description>
        <def:Origin Type="Derived"/>
      </ItemDef>
      <ItemDef OID="IT.RS.RSTESTCD" Name="RSTESTCD" SASFieldName="RSTESTCD" DataType="text" Length="8">
        <Description><TranslatedText xml:lang="en">Disease Response Test Short Name</TranslatedText></Description>
        <def:Origin Type="Collected"/>
      </ItemDef>
      <ItemDef OID="IT.RS.RSTEST" Name="RSTEST" SASFieldName="RSTEST" DataType="text" Length="16">
        <Description><TranslatedText xml:lang="en">Disease Response Test Name</TranslatedText></Description>
        <def:Origin Type="Collected"/>
      </ItemDef>
      <ItemDef OID="IT.RS.RSCAT" Name="RSCAT" SASFieldName="RSCAT" DataType="text" Length="16">
        <Description><TranslatedText xml:lang="en">Category of Disease Response</TranslatedText></Description>
        <def:Origin Type="Collected"/>
      </ItemDef>
      <ItemDef OID="IT.RS.RSORRES" Name="RSORRES" SASFieldName="RSORRES" DataType="text" Length="2">
        <Description><TranslatedText xml:lang="en">Result or Finding in Original Units</TranslatedText></Description>
        <def:Origin Type="Collected"/>
      </ItemDef>
      <ItemDef OID="IT.RS.RSSTRESC" Name="RSSTRESC" SASFieldName="RSSTRESC" DataType="text" Length="2">
        <Description><TranslatedText xml:lang="en">Character Result/Finding in Std Format</TranslatedText></Description>
        <def:Origin Type="Collected"/>
      </ItemDef>
      <ItemDef OID="IT.RS.RSEVAL" Name="RSEVAL" SASFieldName="RSEVAL" DataType="text" Length="20">
        <Description><TranslatedText xml:lang="en">Evaluator</TranslatedText></Description>
        <def:Origin Type="Collected"/>
      </ItemDef>
      <ItemDef OID="IT.RS.VISITNUM" Name="VISITNUM" SASFieldName="VISITNUM" DataType="integer" Length="8">
        <Description><TranslatedText xml:lang="en">Visit Number</TranslatedText></Description>
        <def:Origin Type="Assigned"/>
      </ItemDef>
      <ItemDef OID="IT.RS.VISIT" Name="VISIT" SASFieldName="VISIT" DataType="text" Length="18">
        <Description><TranslatedText xml:lang="en">Visit Name</TranslatedText></Description>
        <def:Origin Type="Assigned"/>
      </ItemDef>
      <ItemDef OID="IT.RS.EPOCH" Name="EPOCH" SASFieldName="EPOCH" DataType="text" Length="9">
        <Description><TranslatedText xml:lang="en">Epoch</TranslatedText></Description>
        <def:Origin Type="Assigned"/>
      </ItemDef>
      <ItemDef OID="IT.RS.RSDTC" Name="RSDTC" SASFieldName="RSDTC" DataType="date" Length="10">
        <Description><TranslatedText xml:lang="en">Date/Time of Disease Response Assessment</TranslatedText></Description>
        <def:Origin Type="Collected"/>
      </ItemDef>
      <ItemDef OID="IT.RS.RSDY" Name="RSDY" SASFieldName="RSDY" DataType="integer" Length="8">
        <Description><TranslatedText xml:lang="en">Study Day of Disease Response Assessment</TranslatedText></Description>
        <def:Origin Type="Collected"/>
      </ItemDef>
      <ItemDef OID="IT.SE.STUDYID" Name="STUDYID" SASFieldName="STUDYID" DataType="text" Length="13">
        <Description><TranslatedText xml:lang="en">Study Identifier</TranslatedText></Description>
        <def:Origin Type="Assigned"/>
      </ItemDef>
      <ItemDef OID="IT.SE.DOMAIN" Name="DOMAIN" SASFieldName="DOMAIN" DataType="text" Length="2">
        <Description><TranslatedText xml:lang="en">Domain Abbreviation</TranslatedText></Description>
        <def:Origin Type="Assigned"/>
      </ItemDef>
      <ItemDef OID="IT.SE.USUBJID" Name="USUBJID" SASFieldName="USUBJID" DataType="text" Length="26">
        <Description><TranslatedText xml:lang="en">Unique Subject Identifier</TranslatedText></Description>
        <def:Origin Type="Assigned"/>
      </ItemDef>
      <ItemDef OID="IT.SE.SESEQ" Name="SESEQ" SASFieldName="SESEQ" DataType="integer" Length="8">
        <Description><TranslatedText xml:lang="en">Sequence Number</TranslatedText></Description>
        <def:Origin Type="Derived"/>
      </ItemDef>
      <ItemDef OID="IT.SE.ETCD" Name="ETCD" SASFieldName="ETCD" DataType="text" Length="4">
        <Description><TranslatedText xml:lang="en">Element Code</TranslatedText></Description>
        <def:Origin Type="Collected"/>
      </ItemDef>
      <ItemDef OID="IT.SE.ELEMENT" Name="ELEMENT" SASFieldName="ELEMENT" DataType="text" Length="9">
        <Description><TranslatedText xml:lang="en">Description of Element</TranslatedText></Description>
        <def:Origin Type="Collected"/>
      </ItemDef>
      <ItemDef OID="IT.SE.TAETORD" Name="TAETORD" SASFieldName="TAETORD" DataType="integer" Length="8">
        <Description><TranslatedText xml:lang="en">Planned Order of Element within Arm</TranslatedText></Description>
        <def:Origin Type="Collected"/>
      </ItemDef>
      <ItemDef OID="IT.SE.EPOCH" Name="EPOCH" SASFieldName="EPOCH" DataType="text" Length="9">
        <Description><TranslatedText xml:lang="en">Epoch</TranslatedText></Description>
        <def:Origin Type="Assigned"/>
      </ItemDef>
      <ItemDef OID="IT.SE.SESTDTC" Name="SESTDTC" SASFieldName="SESTDTC" DataType="date" Length="10">
        <Description><TranslatedText xml:lang="en">Start Date/Time of Element</TranslatedText></Description>
        <def:Origin Type="Collected"/>
      </ItemDef>
      <ItemDef OID="IT.SE.SEENDTC" Name="SEENDTC" SASFieldName="SEENDTC" DataType="date" Length="10">
        <Description><TranslatedText xml:lang="en">End Date/Time of Element</TranslatedText></Description>
        <def:Origin Type="Collected"/>
      </ItemDef>
      <ItemDef OID="IT.SE.SESTDY" Name="SESTDY" SASFieldName="SESTDY" DataType="integer" Length="8">
        <Description><TranslatedText xml:lang="en">Study Day of Start of Element</TranslatedText></Description>
        <def:Origin Type="Collected"/>
      </ItemDef>
      <ItemDef OID="IT.SE.SEENDY" Name="SEENDY" SASFieldName="SEENDY" DataType="integer" Length="8">
        <Description><TranslatedText xml:lang="en">Study Day of End of Element</TranslatedText></Description>
        <def:Origin Type="Collected"/>
      </ItemDef>
      <ItemDef OID="IT.SU.STUDYID" Name="STUDYID" SASFieldName="STUDYID" DataType="text" Length="13">
        <Description><TranslatedText xml:lang="en">Study Identifier</TranslatedText></Description>
        <def:Origin Type="Assigned"/>
      </ItemDef>
      <ItemDef OID="IT.SU.DOMAIN" Name="DOMAIN" SASFieldName="DOMAIN" DataType="text" Length="2">
        <Description><TranslatedText xml:lang="en">Domain Abbreviation</TranslatedText></Description>
        <def:Origin Type="Assigned"/>
      </ItemDef>
      <ItemDef OID="IT.SU.USUBJID" Name="USUBJID" SASFieldName="USUBJID" DataType="text" Length="26">
        <Description><TranslatedText xml:lang="en">Unique Subject Identifier</TranslatedText></Description>
        <def:Origin Type="Assigned"/>
      </ItemDef>
      <ItemDef OID="IT.SU.SUSEQ" Name="SUSEQ" SASFieldName="SUSEQ" DataType="integer" Length="8">
        <Description><TranslatedText xml:lang="en">Sequence Number</TranslatedText></Description>
        <def:Origin Type="Derived"/>
      </ItemDef>
      <ItemDef OID="IT.SU.SUTRT" Name="SUTRT" SASFieldName="SUTRT" DataType="text" Length="18">
        <Description><TranslatedText xml:lang="en">Reported Name of Substance Used</TranslatedText></Description>
        <def:Origin Type="Collected"/>
      </ItemDef>
      <ItemDef OID="IT.SU.SUCAT" Name="SUCAT" SASFieldName="SUCAT" DataType="text" Length="21">
        <Description><TranslatedText xml:lang="en">Category of Substance Use</TranslatedText></Description>
        <def:Origin Type="Collected"/>
      </ItemDef>
      <ItemDef OID="IT.SU.SUSCAT" Name="SUSCAT" SASFieldName="SUSCAT" DataType="text" Length="12">
        <Description><TranslatedText xml:lang="en">Subcategory of Substance Use</TranslatedText></Description>
        <def:Origin Type="Collected"/>
      </ItemDef>
      <ItemDef OID="IT.SU.SUPACKYR" Name="SUPACKYR" SASFieldName="SUPACKYR" DataType="float" Length="8" def:CommentOID="COM.SU.PACKYR">
        <Description><TranslatedText xml:lang="en">Substance Use Pack-Years</TranslatedText></Description>
        <def:Origin Type="Collected"/>
      </ItemDef>
      <ItemDef OID="IT.SUPPAE.STUDYID" Name="STUDYID" SASFieldName="STUDYID" DataType="text" Length="13">
        <Description><TranslatedText xml:lang="en">Study Identifier</TranslatedText></Description>
        <def:Origin Type="Assigned"/>
      </ItemDef>
      <ItemDef OID="IT.SUPPAE.RDOMAIN" Name="RDOMAIN" SASFieldName="RDOMAIN" DataType="text" Length="2">
        <Description><TranslatedText xml:lang="en">Related Domain Abbreviation</TranslatedText></Description>
        <def:Origin Type="Assigned"/>
      </ItemDef>
      <ItemDef OID="IT.SUPPAE.USUBJID" Name="USUBJID" SASFieldName="USUBJID" DataType="text" Length="26">
        <Description><TranslatedText xml:lang="en">Unique Subject Identifier</TranslatedText></Description>
        <def:Origin Type="Assigned"/>
      </ItemDef>
      <ItemDef OID="IT.SUPPAE.IDVAR" Name="IDVAR" SASFieldName="IDVAR" DataType="text" Length="5">
        <Description><TranslatedText xml:lang="en">Identifying Variable</TranslatedText></Description>
        <def:Origin Type="Derived"/>
      </ItemDef>
      <ItemDef OID="IT.SUPPAE.IDVARVAL" Name="IDVARVAL" SASFieldName="IDVARVAL" DataType="text" Length="2">
        <Description><TranslatedText xml:lang="en">Identifying Variable Value</TranslatedText></Description>
        <def:Origin Type="Derived"/>
      </ItemDef>
      <ItemDef OID="IT.SUPPAE.QNAM" Name="QNAM" SASFieldName="QNAM" DataType="text" Length="7">
        <Description><TranslatedText xml:lang="en">Qualifier Variable Name</TranslatedText></Description>
        <def:Origin Type="Derived"/>
      </ItemDef>
      <ItemDef OID="IT.SUPPAE.QLABEL" Name="QLABEL" SASFieldName="QLABEL" DataType="text" Length="36">
        <Description><TranslatedText xml:lang="en">Qualifier Variable Label</TranslatedText></Description>
        <def:Origin Type="Derived"/>
      </ItemDef>
      <ItemDef OID="IT.SUPPAE.QVAL" Name="QVAL" SASFieldName="QVAL" DataType="text" Length="1">
        <Description><TranslatedText xml:lang="en">Data Value</TranslatedText></Description>
        <def:Origin Type="Derived"/>
      </ItemDef>
      <ItemDef OID="IT.SUPPAE.QORIG" Name="QORIG" SASFieldName="QORIG" DataType="text" Length="7">
        <Description><TranslatedText xml:lang="en">Origin</TranslatedText></Description>
        <def:Origin Type="Derived"/>
      </ItemDef>
      <ItemDef OID="IT.SUPPAE.QEVAL" Name="QEVAL" SASFieldName="QEVAL" DataType="text" Length="1">
        <Description><TranslatedText xml:lang="en">Evaluator</TranslatedText></Description>
        <def:Origin Type="Derived"/>
      </ItemDef>
      <ItemDef OID="IT.SUPPCM.STUDYID" Name="STUDYID" SASFieldName="STUDYID" DataType="text" Length="13">
        <Description><TranslatedText xml:lang="en">Study Identifier</TranslatedText></Description>
        <def:Origin Type="Assigned"/>
      </ItemDef>
      <ItemDef OID="IT.SUPPCM.RDOMAIN" Name="RDOMAIN" SASFieldName="RDOMAIN" DataType="text" Length="2">
        <Description><TranslatedText xml:lang="en">Related Domain Abbreviation</TranslatedText></Description>
        <def:Origin Type="Assigned"/>
      </ItemDef>
      <ItemDef OID="IT.SUPPCM.USUBJID" Name="USUBJID" SASFieldName="USUBJID" DataType="text" Length="26">
        <Description><TranslatedText xml:lang="en">Unique Subject Identifier</TranslatedText></Description>
        <def:Origin Type="Assigned"/>
      </ItemDef>
      <ItemDef OID="IT.SUPPCM.IDVAR" Name="IDVAR" SASFieldName="IDVAR" DataType="text" Length="5">
        <Description><TranslatedText xml:lang="en">Identifying Variable</TranslatedText></Description>
        <def:Origin Type="Derived"/>
      </ItemDef>
      <ItemDef OID="IT.SUPPCM.IDVARVAL" Name="IDVARVAL" SASFieldName="IDVARVAL" DataType="text" Length="1">
        <Description><TranslatedText xml:lang="en">Identifying Variable Value</TranslatedText></Description>
        <def:Origin Type="Derived"/>
      </ItemDef>
      <ItemDef OID="IT.SUPPCM.QNAM" Name="QNAM" SASFieldName="QNAM" DataType="text" Length="8">
        <Description><TranslatedText xml:lang="en">Qualifier Variable Name</TranslatedText></Description>
        <def:Origin Type="Derived"/>
      </ItemDef>
      <ItemDef OID="IT.SUPPCM.QLABEL" Name="QLABEL" SASFieldName="QLABEL" DataType="text" Length="30">
        <Description><TranslatedText xml:lang="en">Qualifier Variable Label</TranslatedText></Description>
        <def:Origin Type="Derived"/>
      </ItemDef>
      <ItemDef OID="IT.SUPPCM.QVAL" Name="QVAL" SASFieldName="QVAL" DataType="text" Length="7">
        <Description><TranslatedText xml:lang="en">Data Value</TranslatedText></Description>
        <def:Origin Type="Derived"/>
      </ItemDef>
      <ItemDef OID="IT.SUPPCM.QORIG" Name="QORIG" SASFieldName="QORIG" DataType="text" Length="8">
        <Description><TranslatedText xml:lang="en">Origin</TranslatedText></Description>
        <def:Origin Type="Derived"/>
      </ItemDef>
      <ItemDef OID="IT.SUPPCM.QEVAL" Name="QEVAL" SASFieldName="QEVAL" DataType="text" Length="1">
        <Description><TranslatedText xml:lang="en">Evaluator</TranslatedText></Description>
        <def:Origin Type="Derived"/>
      </ItemDef>
      <ItemDef OID="IT.SUPPDM.STUDYID" Name="STUDYID" SASFieldName="STUDYID" DataType="text" Length="13">
        <Description><TranslatedText xml:lang="en">Study Identifier</TranslatedText></Description>
        <def:Origin Type="Assigned"/>
      </ItemDef>
      <ItemDef OID="IT.SUPPDM.RDOMAIN" Name="RDOMAIN" SASFieldName="RDOMAIN" DataType="text" Length="2">
        <Description><TranslatedText xml:lang="en">Related Domain Abbreviation</TranslatedText></Description>
        <def:Origin Type="Assigned"/>
      </ItemDef>
      <ItemDef OID="IT.SUPPDM.USUBJID" Name="USUBJID" SASFieldName="USUBJID" DataType="text" Length="26">
        <Description><TranslatedText xml:lang="en">Unique Subject Identifier</TranslatedText></Description>
        <def:Origin Type="Assigned"/>
      </ItemDef>
      <ItemDef OID="IT.SUPPDM.IDVAR" Name="IDVAR" SASFieldName="IDVAR" DataType="text" Length="1">
        <Description><TranslatedText xml:lang="en">Identifying Variable</TranslatedText></Description>
        <def:Origin Type="Derived"/>
      </ItemDef>
      <ItemDef OID="IT.SUPPDM.IDVARVAL" Name="IDVARVAL" SASFieldName="IDVARVAL" DataType="text" Length="1">
        <Description><TranslatedText xml:lang="en">Identifying Variable Value</TranslatedText></Description>
        <def:Origin Type="Derived"/>
      </ItemDef>
      <ItemDef OID="IT.SUPPDM.QNAM" Name="QNAM" SASFieldName="QNAM" DataType="text" Length="8">
        <Description><TranslatedText xml:lang="en">Qualifier Variable Name</TranslatedText></Description>
        <def:Origin Type="Derived"/>
      </ItemDef>
      <ItemDef OID="IT.SUPPDM.QLABEL" Name="QLABEL" SASFieldName="QLABEL" DataType="text" Length="35">
        <Description><TranslatedText xml:lang="en">Qualifier Variable Label</TranslatedText></Description>
        <def:Origin Type="Derived"/>
      </ItemDef>
      <ItemDef OID="IT.SUPPDM.QVAL" Name="QVAL" SASFieldName="QVAL" DataType="text" Length="12">
        <Description><TranslatedText xml:lang="en">Data Value</TranslatedText></Description>
        <def:Origin Type="Derived"/>
      </ItemDef>
      <ItemDef OID="IT.SUPPDM.QORIG" Name="QORIG" SASFieldName="QORIG" DataType="text" Length="3">
        <Description><TranslatedText xml:lang="en">Origin</TranslatedText></Description>
        <def:Origin Type="Derived"/>
      </ItemDef>
      <ItemDef OID="IT.SUPPDM.QEVAL" Name="QEVAL" SASFieldName="QEVAL" DataType="text" Length="1">
        <Description><TranslatedText xml:lang="en">Evaluator</TranslatedText></Description>
        <def:Origin Type="Derived"/>
      </ItemDef>
      <ItemDef OID="IT.SUPPLB.STUDYID" Name="STUDYID" SASFieldName="STUDYID" DataType="text" Length="13">
        <Description><TranslatedText xml:lang="en">Study Identifier</TranslatedText></Description>
        <def:Origin Type="Assigned"/>
      </ItemDef>
      <ItemDef OID="IT.SUPPLB.RDOMAIN" Name="RDOMAIN" SASFieldName="RDOMAIN" DataType="text" Length="2">
        <Description><TranslatedText xml:lang="en">Related Domain Abbreviation</TranslatedText></Description>
        <def:Origin Type="Assigned"/>
      </ItemDef>
      <ItemDef OID="IT.SUPPLB.USUBJID" Name="USUBJID" SASFieldName="USUBJID" DataType="text" Length="26">
        <Description><TranslatedText xml:lang="en">Unique Subject Identifier</TranslatedText></Description>
        <def:Origin Type="Assigned"/>
      </ItemDef>
      <ItemDef OID="IT.SUPPLB.IDVAR" Name="IDVAR" SASFieldName="IDVAR" DataType="text" Length="5">
        <Description><TranslatedText xml:lang="en">Identifying Variable</TranslatedText></Description>
        <def:Origin Type="Derived"/>
      </ItemDef>
      <ItemDef OID="IT.SUPPLB.IDVARVAL" Name="IDVARVAL" SASFieldName="IDVARVAL" DataType="text" Length="3">
        <Description><TranslatedText xml:lang="en">Identifying Variable Value</TranslatedText></Description>
        <def:Origin Type="Derived"/>
      </ItemDef>
      <ItemDef OID="IT.SUPPLB.QNAM" Name="QNAM" SASFieldName="QNAM" DataType="text" Length="8">
        <Description><TranslatedText xml:lang="en">Qualifier Variable Name</TranslatedText></Description>
        <def:Origin Type="Derived"/>
      </ItemDef>
      <ItemDef OID="IT.SUPPLB.QLABEL" Name="QLABEL" SASFieldName="QLABEL" DataType="text" Length="24">
        <Description><TranslatedText xml:lang="en">Qualifier Variable Label</TranslatedText></Description>
        <def:Origin Type="Derived"/>
      </ItemDef>
      <ItemDef OID="IT.SUPPLB.QVAL" Name="QVAL" SASFieldName="QVAL" DataType="text" Length="1">
        <Description><TranslatedText xml:lang="en">Data Value</TranslatedText></Description>
        <def:Origin Type="Derived"/>
      </ItemDef>
      <ItemDef OID="IT.SUPPLB.QORIG" Name="QORIG" SASFieldName="QORIG" DataType="text" Length="7">
        <Description><TranslatedText xml:lang="en">Origin</TranslatedText></Description>
        <def:Origin Type="Derived"/>
      </ItemDef>
      <ItemDef OID="IT.SUPPLB.QEVAL" Name="QEVAL" SASFieldName="QEVAL" DataType="text" Length="1">
        <Description><TranslatedText xml:lang="en">Evaluator</TranslatedText></Description>
        <def:Origin Type="Derived"/>
      </ItemDef>
      <ItemDef OID="IT.SUPPSU.STUDYID" Name="STUDYID" SASFieldName="STUDYID" DataType="text" Length="13">
        <Description><TranslatedText xml:lang="en">Study Identifier</TranslatedText></Description>
        <def:Origin Type="Assigned"/>
      </ItemDef>
      <ItemDef OID="IT.SUPPSU.RDOMAIN" Name="RDOMAIN" SASFieldName="RDOMAIN" DataType="text" Length="2">
        <Description><TranslatedText xml:lang="en">Related Domain Abbreviation</TranslatedText></Description>
        <def:Origin Type="Assigned"/>
      </ItemDef>
      <ItemDef OID="IT.SUPPSU.USUBJID" Name="USUBJID" SASFieldName="USUBJID" DataType="text" Length="26">
        <Description><TranslatedText xml:lang="en">Unique Subject Identifier</TranslatedText></Description>
        <def:Origin Type="Assigned"/>
      </ItemDef>
      <ItemDef OID="IT.SUPPSU.IDVAR" Name="IDVAR" SASFieldName="IDVAR" DataType="text" Length="5">
        <Description><TranslatedText xml:lang="en">Identifying Variable</TranslatedText></Description>
        <def:Origin Type="Derived"/>
      </ItemDef>
      <ItemDef OID="IT.SUPPSU.IDVARVAL" Name="IDVARVAL" SASFieldName="IDVARVAL" DataType="text" Length="1">
        <Description><TranslatedText xml:lang="en">Identifying Variable Value</TranslatedText></Description>
        <def:Origin Type="Derived"/>
      </ItemDef>
      <ItemDef OID="IT.SUPPSU.QNAM" Name="QNAM" SASFieldName="QNAM" DataType="text" Length="7">
        <Description><TranslatedText xml:lang="en">Qualifier Variable Name</TranslatedText></Description>
        <def:Origin Type="Derived"/>
      </ItemDef>
      <ItemDef OID="IT.SUPPSU.QLABEL" Name="QLABEL" SASFieldName="QLABEL" DataType="text" Length="14">
        <Description><TranslatedText xml:lang="en">Qualifier Variable Label</TranslatedText></Description>
        <def:Origin Type="Derived"/>
      </ItemDef>
      <ItemDef OID="IT.SUPPSU.QVAL" Name="QVAL" SASFieldName="QVAL" DataType="text" Length="14">
        <Description><TranslatedText xml:lang="en">Data Value</TranslatedText></Description>
        <def:Origin Type="Derived"/>
      </ItemDef>
      <ItemDef OID="IT.SUPPSU.QORIG" Name="QORIG" SASFieldName="QORIG" DataType="text" Length="3">
        <Description><TranslatedText xml:lang="en">Origin</TranslatedText></Description>
        <def:Origin Type="Derived"/>
      </ItemDef>
      <ItemDef OID="IT.SUPPSU.QEVAL" Name="QEVAL" SASFieldName="QEVAL" DataType="text" Length="1">
        <Description><TranslatedText xml:lang="en">Evaluator</TranslatedText></Description>
        <def:Origin Type="Derived"/>
      </ItemDef>
      <ItemDef OID="IT.TA.STUDYID" Name="STUDYID" SASFieldName="STUDYID" DataType="text" Length="13">
        <Description><TranslatedText xml:lang="en">Study Identifier</TranslatedText></Description>
        <def:Origin Type="Assigned"/>
      </ItemDef>
      <ItemDef OID="IT.TA.DOMAIN" Name="DOMAIN" SASFieldName="DOMAIN" DataType="text" Length="2">
        <Description><TranslatedText xml:lang="en">Domain Abbreviation</TranslatedText></Description>
        <def:Origin Type="Assigned"/>
      </ItemDef>
      <ItemDef OID="IT.TA.ARMCD" Name="ARMCD" SASFieldName="ARMCD" DataType="text" Length="9">
        <Description><TranslatedText xml:lang="en">Planned Arm Code</TranslatedText></Description>
        <def:Origin Type="Assigned"/>
      </ItemDef>
      <ItemDef OID="IT.TA.ARM" Name="ARM" SASFieldName="ARM" DataType="text" Length="24">
        <Description><TranslatedText xml:lang="en">Description of Planned Arm</TranslatedText></Description>
        <def:Origin Type="Assigned"/>
      </ItemDef>
      <ItemDef OID="IT.TA.TAETORD" Name="TAETORD" SASFieldName="TAETORD" DataType="integer" Length="8">
        <Description><TranslatedText xml:lang="en">Planned Order of Element within Arm</TranslatedText></Description>
        <def:Origin Type="Collected"/>
      </ItemDef>
      <ItemDef OID="IT.TA.ETCD" Name="ETCD" SASFieldName="ETCD" DataType="text" Length="4">
        <Description><TranslatedText xml:lang="en">Element Code</TranslatedText></Description>
        <def:Origin Type="Collected"/>
      </ItemDef>
      <ItemDef OID="IT.TA.ELEMENT" Name="ELEMENT" SASFieldName="ELEMENT" DataType="text" Length="9">
        <Description><TranslatedText xml:lang="en">Description of Element</TranslatedText></Description>
        <def:Origin Type="Collected"/>
      </ItemDef>
      <ItemDef OID="IT.TA.TABRANCH" Name="TABRANCH" SASFieldName="TABRANCH" DataType="text" Length="38">
        <Description><TranslatedText xml:lang="en">Branch</TranslatedText></Description>
        <def:Origin Type="Collected"/>
      </ItemDef>
      <ItemDef OID="IT.TA.TATRANS" Name="TATRANS" SASFieldName="TATRANS" DataType="text" Length="1">
        <Description><TranslatedText xml:lang="en">Transition Rule</TranslatedText></Description>
        <def:Origin Type="Collected"/>
      </ItemDef>
      <ItemDef OID="IT.TA.EPOCH" Name="EPOCH" SASFieldName="EPOCH" DataType="text" Length="9">
        <Description><TranslatedText xml:lang="en">Epoch</TranslatedText></Description>
        <def:Origin Type="Assigned"/>
      </ItemDef>
      <ItemDef OID="IT.TE.STUDYID" Name="STUDYID" SASFieldName="STUDYID" DataType="text" Length="13">
        <Description><TranslatedText xml:lang="en">Study Identifier</TranslatedText></Description>
        <def:Origin Type="Assigned"/>
      </ItemDef>
      <ItemDef OID="IT.TE.DOMAIN" Name="DOMAIN" SASFieldName="DOMAIN" DataType="text" Length="2">
        <Description><TranslatedText xml:lang="en">Domain Abbreviation</TranslatedText></Description>
        <def:Origin Type="Assigned"/>
      </ItemDef>
      <ItemDef OID="IT.TE.ETCD" Name="ETCD" SASFieldName="ETCD" DataType="text" Length="4">
        <Description><TranslatedText xml:lang="en">Element Code</TranslatedText></Description>
        <def:Origin Type="Collected"/>
      </ItemDef>
      <ItemDef OID="IT.TE.ELEMENT" Name="ELEMENT" SASFieldName="ELEMENT" DataType="text" Length="9">
        <Description><TranslatedText xml:lang="en">Description of Element</TranslatedText></Description>
        <def:Origin Type="Collected"/>
      </ItemDef>
      <ItemDef OID="IT.TE.TESTRL" Name="TESTRL" SASFieldName="TESTRL" DataType="text" Length="34">
        <Description><TranslatedText xml:lang="en">Rule for Start of Element</TranslatedText></Description>
        <def:Origin Type="Collected"/>
      </ItemDef>
      <ItemDef OID="IT.TE.TEENRL" Name="TEENRL" SASFieldName="TEENRL" DataType="text" Length="47">
        <Description><TranslatedText xml:lang="en">Rule for End of Element</TranslatedText></Description>
        <def:Origin Type="Collected"/>
      </ItemDef>
      <ItemDef OID="IT.TE.TEDUR" Name="TEDUR" SASFieldName="TEDUR" DataType="text" Length="4">
        <Description><TranslatedText xml:lang="en">Planned Duration of Element</TranslatedText></Description>
        <def:Origin Type="Collected"/>
      </ItemDef>
      <ItemDef OID="IT.TR.STUDYID" Name="STUDYID" SASFieldName="STUDYID" DataType="text" Length="13">
        <Description><TranslatedText xml:lang="en">Study Identifier</TranslatedText></Description>
        <def:Origin Type="Assigned"/>
      </ItemDef>
      <ItemDef OID="IT.TR.DOMAIN" Name="DOMAIN" SASFieldName="DOMAIN" DataType="text" Length="2">
        <Description><TranslatedText xml:lang="en">Domain Abbreviation</TranslatedText></Description>
        <def:Origin Type="Assigned"/>
      </ItemDef>
      <ItemDef OID="IT.TR.USUBJID" Name="USUBJID" SASFieldName="USUBJID" DataType="text" Length="26">
        <Description><TranslatedText xml:lang="en">Unique Subject Identifier</TranslatedText></Description>
        <def:Origin Type="Assigned"/>
      </ItemDef>
      <ItemDef OID="IT.TR.TRSEQ" Name="TRSEQ" SASFieldName="TRSEQ" DataType="integer" Length="8">
        <Description><TranslatedText xml:lang="en">Sequence Number</TranslatedText></Description>
        <def:Origin Type="Derived"/>
      </ItemDef>
      <ItemDef OID="IT.TR.TRGRPID" Name="TRGRPID" SASFieldName="TRGRPID" DataType="text" Length="6">
        <Description><TranslatedText xml:lang="en">Group ID</TranslatedText></Description>
        <def:Origin Type="Collected"/>
      </ItemDef>
      <ItemDef OID="IT.TR.TRLNKID" Name="TRLNKID" SASFieldName="TRLNKID" DataType="text" Length="8">
        <Description><TranslatedText xml:lang="en">Link ID</TranslatedText></Description>
        <def:Origin Type="Collected"/>
      </ItemDef>
      <ItemDef OID="IT.TR.TRTESTCD" Name="TRTESTCD" SASFieldName="TRTESTCD" DataType="text" Length="5">
        <Description><TranslatedText xml:lang="en">Tumor Result Test Short Name</TranslatedText></Description>
        <def:Origin Type="Derived"/>
      </ItemDef>
      <ItemDef OID="IT.TR.TRTEST" Name="TRTEST" SASFieldName="TRTEST" DataType="text" Length="16">
        <Description><TranslatedText xml:lang="en">Tumor Result Test Name</TranslatedText></Description>
        <def:Origin Type="Derived"/>
      </ItemDef>
      <ItemDef OID="IT.TR.TRORRES" Name="TRORRES" SASFieldName="TRORRES" DataType="text" Length="4">
        <Description><TranslatedText xml:lang="en">Result or Finding in Original Units</TranslatedText></Description>
        <def:Origin Type="Collected"/>
      </ItemDef>
      <ItemDef OID="IT.TR.TRORRESU" Name="TRORRESU" SASFieldName="TRORRESU" DataType="text" Length="2">
        <Description><TranslatedText xml:lang="en">Original Units</TranslatedText></Description>
        <def:Origin Type="Collected"/>
      </ItemDef>
      <ItemDef OID="IT.TR.TRSTRESC" Name="TRSTRESC" SASFieldName="TRSTRESC" DataType="text" Length="4">
        <Description><TranslatedText xml:lang="en">Character Result/Finding in Std Format</TranslatedText></Description>
        <def:Origin Type="Collected"/>
      </ItemDef>
      <ItemDef OID="IT.TR.TRSTRESN" Name="TRSTRESN" SASFieldName="TRSTRESN" DataType="float" Length="8">
        <Description><TranslatedText xml:lang="en">Numeric Result/Finding in Standard Units</TranslatedText></Description>
        <def:Origin Type="Collected"/>
      </ItemDef>
      <ItemDef OID="IT.TR.TRSTRESU" Name="TRSTRESU" SASFieldName="TRSTRESU" DataType="text" Length="2">
        <Description><TranslatedText xml:lang="en">Standard Units</TranslatedText></Description>
        <def:Origin Type="Collected"/>
      </ItemDef>
      <ItemDef OID="IT.TR.TRMETHOD" Name="TRMETHOD" SASFieldName="TRMETHOD" DataType="text" Length="7">
        <Description><TranslatedText xml:lang="en">Method of Test or Examination</TranslatedText></Description>
        <def:Origin Type="Collected"/>
      </ItemDef>
      <ItemDef OID="IT.TR.TRLOBXFL" Name="TRLOBXFL" SASFieldName="TRLOBXFL" DataType="text" Length="1">
        <Description><TranslatedText xml:lang="en">Last Observation Before Exposure Flag</TranslatedText></Description>
        <def:Origin Type="Derived"/>
      </ItemDef>
      <ItemDef OID="IT.TR.TREVAL" Name="TREVAL" SASFieldName="TREVAL" DataType="text" Length="12">
        <Description><TranslatedText xml:lang="en">Evaluator</TranslatedText></Description>
        <def:Origin Type="Collected"/>
      </ItemDef>
      <ItemDef OID="IT.TR.VISITNUM" Name="VISITNUM" SASFieldName="VISITNUM" DataType="integer" Length="8">
        <Description><TranslatedText xml:lang="en">Visit Number</TranslatedText></Description>
        <def:Origin Type="Assigned"/>
      </ItemDef>
      <ItemDef OID="IT.TR.VISIT" Name="VISIT" SASFieldName="VISIT" DataType="text" Length="18">
        <Description><TranslatedText xml:lang="en">Visit Name</TranslatedText></Description>
        <def:Origin Type="Assigned"/>
      </ItemDef>
      <ItemDef OID="IT.TR.EPOCH" Name="EPOCH" SASFieldName="EPOCH" DataType="text" Length="9">
        <Description><TranslatedText xml:lang="en">Epoch</TranslatedText></Description>
        <def:Origin Type="Assigned"/>
      </ItemDef>
      <ItemDef OID="IT.TR.TRDTC" Name="TRDTC" SASFieldName="TRDTC" DataType="date" Length="10">
        <Description><TranslatedText xml:lang="en">Date/Time of Assessment</TranslatedText></Description>
        <def:Origin Type="Collected"/>
      </ItemDef>
      <ItemDef OID="IT.TR.TRDY" Name="TRDY" SASFieldName="TRDY" DataType="integer" Length="8">
        <Description><TranslatedText xml:lang="en">Study Day of Assessment</TranslatedText></Description>
        <def:Origin Type="Collected"/>
      </ItemDef>
      <ItemDef OID="IT.TS.STUDYID" Name="STUDYID" SASFieldName="STUDYID" DataType="text" Length="13">
        <Description><TranslatedText xml:lang="en">Study Identifier</TranslatedText></Description>
        <def:Origin Type="Assigned"/>
      </ItemDef>
      <ItemDef OID="IT.TS.DOMAIN" Name="DOMAIN" SASFieldName="DOMAIN" DataType="text" Length="2">
        <Description><TranslatedText xml:lang="en">Domain Abbreviation</TranslatedText></Description>
        <def:Origin Type="Assigned"/>
      </ItemDef>
      <ItemDef OID="IT.TS.TSSEQ" Name="TSSEQ" SASFieldName="TSSEQ" DataType="integer" Length="8">
        <Description><TranslatedText xml:lang="en">Sequence Number</TranslatedText></Description>
        <def:Origin Type="Derived"/>
      </ItemDef>
      <ItemDef OID="IT.TS.TSPARMCD" Name="TSPARMCD" SASFieldName="TSPARMCD" DataType="text" Length="8">
        <Description><TranslatedText xml:lang="en">Trial Summary Parameter Short Name</TranslatedText></Description>
        <def:Origin Type="Collected"/>
      </ItemDef>
      <ItemDef OID="IT.TS.TSPARM" Name="TSPARM" SASFieldName="TSPARM" DataType="text" Length="40">
        <Description><TranslatedText xml:lang="en">Trial Summary Parameter</TranslatedText></Description>
        <def:Origin Type="Collected"/>
      </ItemDef>
      <ItemDef OID="IT.TS.TSVAL" Name="TSVAL" SASFieldName="TSVAL" DataType="text" Length="167">
        <Description><TranslatedText xml:lang="en">Parameter Value</TranslatedText></Description>
        <def:Origin Type="Collected"/>
      </ItemDef>
      <ItemDef OID="IT.TU.STUDYID" Name="STUDYID" SASFieldName="STUDYID" DataType="text" Length="13">
        <Description><TranslatedText xml:lang="en">Study Identifier</TranslatedText></Description>
        <def:Origin Type="Assigned"/>
      </ItemDef>
      <ItemDef OID="IT.TU.DOMAIN" Name="DOMAIN" SASFieldName="DOMAIN" DataType="text" Length="2">
        <Description><TranslatedText xml:lang="en">Domain Abbreviation</TranslatedText></Description>
        <def:Origin Type="Assigned"/>
      </ItemDef>
      <ItemDef OID="IT.TU.USUBJID" Name="USUBJID" SASFieldName="USUBJID" DataType="text" Length="26">
        <Description><TranslatedText xml:lang="en">Unique Subject Identifier</TranslatedText></Description>
        <def:Origin Type="Assigned"/>
      </ItemDef>
      <ItemDef OID="IT.TU.TUSEQ" Name="TUSEQ" SASFieldName="TUSEQ" DataType="integer" Length="8">
        <Description><TranslatedText xml:lang="en">Sequence Number</TranslatedText></Description>
        <def:Origin Type="Derived"/>
      </ItemDef>
      <ItemDef OID="IT.TU.TUGRPID" Name="TUGRPID" SASFieldName="TUGRPID" DataType="text" Length="10">
        <Description><TranslatedText xml:lang="en">Group ID</TranslatedText></Description>
        <def:Origin Type="Collected"/>
      </ItemDef>
      <ItemDef OID="IT.TU.TULNKID" Name="TULNKID" SASFieldName="TULNKID" DataType="text" Length="11">
        <Description><TranslatedText xml:lang="en">Link ID</TranslatedText></Description>
        <def:Origin Type="Collected"/>
      </ItemDef>
      <ItemDef OID="IT.TU.TUTESTCD" Name="TUTESTCD" SASFieldName="TUTESTCD" DataType="text" Length="8">
        <Description><TranslatedText xml:lang="en">Tumor Identification Short Name</TranslatedText></Description>
        <def:Origin Type="Collected"/>
      </ItemDef>
      <ItemDef OID="IT.TU.TUTEST" Name="TUTEST" SASFieldName="TUTEST" DataType="text" Length="20">
        <Description><TranslatedText xml:lang="en">Tumor Identification Name</TranslatedText></Description>
        <def:Origin Type="Collected"/>
      </ItemDef>
      <ItemDef OID="IT.TU.TUORRES" Name="TUORRES" SASFieldName="TUORRES" DataType="text" Length="37">
        <Description><TranslatedText xml:lang="en">Result or Finding in Original Units</TranslatedText></Description>
        <def:Origin Type="Collected"/>
      </ItemDef>
      <ItemDef OID="IT.TU.TULOC" Name="TULOC" SASFieldName="TULOC" DataType="text" Length="26">
        <Description><TranslatedText xml:lang="en">Location of the Tumor</TranslatedText></Description>
        <def:Origin Type="Collected"/>
      </ItemDef>
      <ItemDef OID="IT.TU.TUMETHOD" Name="TUMETHOD" SASFieldName="TUMETHOD" DataType="text" Length="7">
        <Description><TranslatedText xml:lang="en">Method of Identification</TranslatedText></Description>
        <def:Origin Type="Collected"/>
      </ItemDef>
      <ItemDef OID="IT.TU.VISITNUM" Name="VISITNUM" SASFieldName="VISITNUM" DataType="integer" Length="8">
        <Description><TranslatedText xml:lang="en">Visit Number</TranslatedText></Description>
        <def:Origin Type="Assigned"/>
      </ItemDef>
      <ItemDef OID="IT.TU.VISIT" Name="VISIT" SASFieldName="VISIT" DataType="text" Length="18">
        <Description><TranslatedText xml:lang="en">Visit Name</TranslatedText></Description>
        <def:Origin Type="Assigned"/>
      </ItemDef>
      <ItemDef OID="IT.TU.EPOCH" Name="EPOCH" SASFieldName="EPOCH" DataType="text" Length="9">
        <Description><TranslatedText xml:lang="en">Epoch</TranslatedText></Description>
        <def:Origin Type="Assigned"/>
      </ItemDef>
      <ItemDef OID="IT.TU.TUDTC" Name="TUDTC" SASFieldName="TUDTC" DataType="date" Length="10">
        <Description><TranslatedText xml:lang="en">Date/Time of Tumor Identification</TranslatedText></Description>
        <def:Origin Type="Collected"/>
      </ItemDef>
      <ItemDef OID="IT.TU.TUDY" Name="TUDY" SASFieldName="TUDY" DataType="integer" Length="8">
        <Description><TranslatedText xml:lang="en">Study Day of Tumor Identification</TranslatedText></Description>
        <def:Origin Type="Collected"/>
      </ItemDef>
      <ItemDef OID="IT.VS.STUDYID" Name="STUDYID" SASFieldName="STUDYID" DataType="text" Length="13">
        <Description><TranslatedText xml:lang="en">Study Identifier</TranslatedText></Description>
        <def:Origin Type="Assigned"/>
      </ItemDef>
      <ItemDef OID="IT.VS.DOMAIN" Name="DOMAIN" SASFieldName="DOMAIN" DataType="text" Length="2">
        <Description><TranslatedText xml:lang="en">Domain Abbreviation</TranslatedText></Description>
        <def:Origin Type="Assigned"/>
      </ItemDef>
      <ItemDef OID="IT.VS.USUBJID" Name="USUBJID" SASFieldName="USUBJID" DataType="text" Length="26">
        <Description><TranslatedText xml:lang="en">Unique Subject Identifier</TranslatedText></Description>
        <def:Origin Type="Assigned"/>
      </ItemDef>
      <ItemDef OID="IT.VS.VSSEQ" Name="VSSEQ" SASFieldName="VSSEQ" DataType="integer" Length="8">
        <Description><TranslatedText xml:lang="en">Sequence Number</TranslatedText></Description>
        <def:Origin Type="Derived"/>
      </ItemDef>
      <ItemDef OID="IT.VS.VSTESTCD" Name="VSTESTCD" SASFieldName="VSTESTCD" DataType="text" Length="6">
        <Description><TranslatedText xml:lang="en">Vital Signs Test Short Name</TranslatedText></Description>
        <def:Origin Type="Collected"/>
      </ItemDef>
      <ItemDef OID="IT.VS.VSTEST" Name="VSTEST" SASFieldName="VSTEST" DataType="text" Length="24">
        <Description><TranslatedText xml:lang="en">Vital Signs Test Name</TranslatedText></Description>
        <def:Origin Type="Collected"/>
      </ItemDef>
      <ItemDef OID="IT.VS.VSORRES" Name="VSORRES" SASFieldName="VSORRES" DataType="text" Length="5">
        <Description><TranslatedText xml:lang="en">Result or Finding in Original Units</TranslatedText></Description>
        <def:Origin Type="Collected"/>
      </ItemDef>
      <ItemDef OID="IT.VS.VSORRESU" Name="VSORRESU" SASFieldName="VSORRESU" DataType="text" Length="11">
        <Description><TranslatedText xml:lang="en">Original Units</TranslatedText></Description>
        <def:Origin Type="Collected"/>
      </ItemDef>
      <ItemDef OID="IT.VS.VSSTRESC" Name="VSSTRESC" SASFieldName="VSSTRESC" DataType="text" Length="5">
        <Description><TranslatedText xml:lang="en">Character Result/Finding in Std Format</TranslatedText></Description>
        <def:Origin Type="Collected"/>
      </ItemDef>
      <ItemDef OID="IT.VS.VSSTRESN" Name="VSSTRESN" SASFieldName="VSSTRESN" DataType="float" Length="8">
        <Description><TranslatedText xml:lang="en">Numeric Result/Finding in Standard Units</TranslatedText></Description>
        <def:Origin Type="Collected"/>
      </ItemDef>
      <ItemDef OID="IT.VS.VSSTRESU" Name="VSSTRESU" SASFieldName="VSSTRESU" DataType="text" Length="11">
        <Description><TranslatedText xml:lang="en">Standard Units</TranslatedText></Description>
        <def:Origin Type="Collected"/>
      </ItemDef>
      <ItemDef OID="IT.VS.VISITNUM" Name="VISITNUM" SASFieldName="VISITNUM" DataType="integer" Length="8">
        <Description><TranslatedText xml:lang="en">Visit Number</TranslatedText></Description>
        <def:Origin Type="Assigned"/>
      </ItemDef>
      <ItemDef OID="IT.VS.VISIT" Name="VISIT" SASFieldName="VISIT" DataType="text" Length="11">
        <Description><TranslatedText xml:lang="en">Visit Name</TranslatedText></Description>
        <def:Origin Type="Assigned"/>
      </ItemDef>
      <ItemDef OID="IT.VS.EPOCH" Name="EPOCH" SASFieldName="EPOCH" DataType="text" Length="9">
        <Description><TranslatedText xml:lang="en">Epoch</TranslatedText></Description>
        <def:Origin Type="Assigned"/>
      </ItemDef>
      <ItemDef OID="IT.VS.VSDTC" Name="VSDTC" SASFieldName="VSDTC" DataType="date" Length="10">
        <Description><TranslatedText xml:lang="en">Date/Time of Measurements</TranslatedText></Description>
        <def:Origin Type="Collected"/>
      </ItemDef>
      <ItemDef OID="IT.VS.VSDY" Name="VSDY" SASFieldName="VSDY" DataType="integer" Length="8">
        <Description><TranslatedText xml:lang="en">Study Day of Vital Signs</TranslatedText></Description>
        <def:Origin Type="Collected"/>
      </ItemDef>
      <def:CommentDef OID="COM.DA.UNITS">
        <Description><TranslatedText xml:lang="en">Drug-accountability units are intentionally product-specific: BSA-dosed chemotherapy is recorded in mg/m2, flat-dosed chemotherapy in mg, and vialed biologic product in VIAL. Standard units therefore legitimately differ for a given DATESTCD across products. The related Pinnacle 21 check SD0007 (Inconsistent value for Standard Units; Warning severity) is an accepted limitation for this study, not a data error — no cross-product unit conversion is applied.</TranslatedText></Description>
      </def:CommentDef>
      <def:CommentDef OID="COM.CM.ATC">
        <Description><TranslatedText xml:lang="en">The ATC classification code is denormalised into CM for back-compatibility with the ADaM joins; the SDTM-conformant home is SUPPCM (which also carries it). Pinnacle 21 SD0058 (variable not in SDTM model) is an accepted limitation.</TranslatedText></Description>
      </def:CommentDef>
      <def:CommentDef OID="COM.SU.PACKYR">
        <Description><TranslatedText xml:lang="en">Substance-use pack-years is a sponsor-defined extension retained on SU for convenience; the SDTM-conformant home is SUPPSU. Pinnacle 21 SD0058 is an accepted limitation.</TranslatedText></Description>
      </def:CommentDef>
      <def:CommentDef OID="COM.EX.VISIT">
        <Description><TranslatedText xml:lang="en">VISIT/VISITNUM are retained on EX to support visit-based joins in ADEX. Pinnacle 21 SD1076 (model permissible variable added into a standard domain; Note severity) is an accepted limitation.</TranslatedText></Description>
      </def:CommentDef>
      <def:CommentDef OID="COM.PE.CLSIG">
        <Description><TranslatedText xml:lang="en">PECLSIG (clinically significant) is retained as a permissible qualifier. Pinnacle 21 SD1076 (Note severity) is an accepted limitation.</TranslatedText></Description>
      </def:CommentDef>
      <def:CommentDef OID="COM.DM.ARMNRS">
        <Description><TranslatedText xml:lang="en">Every subject is randomised, so ARMNRS (reason arm not assigned) is correctly null for all records. Pinnacle 21 SD1149 (expected variable with all values missing) is an accepted limitation.</TranslatedText></Description>
      </def:CommentDef>
      <def:CommentDef OID="COM.DM.UNDOSED">
        <Description><TranslatedText xml:lang="en">One randomised subject (0277) died 4 days after screening before any dose, so has no EX record and a null RFXSTDTC (Pinnacle 21 SD0070 / SD1343). An accepted single-subject scenario in the synthetic data; the subject remains in the ITT population and is excluded from the safety population.</TranslatedText></Description>
      </def:CommentDef>
      <def:CommentDef OID="COM.SU.NOTIMING">
        <Description><TranslatedText xml:lang="en">Substance use captures lifetime history (e.g. tobacco/alcohol status) with no collected dates, so SU carries no timing variable. Pinnacle 21 SD1299 (no timing variables present) is an accepted limitation.</TranslatedText></Description>
      </def:CommentDef>
      <def:CommentDef OID="COM.LB.NOLC">
        <Description><TranslatedText xml:lang="en">Pinnacle 21 SD1485 expects a companion LC (Laboratory Cell Findings) domain when LB is present. This study collects only conventional clinical-chemistry and haematology results (LB); no cell-level cytometry (LC) data are generated, so the check (Warning severity) is an accepted limitation.</TranslatedText></Description>
      </def:CommentDef>
    </MetaDataVersion>
  </Study>
</ODM>

