meta:
  study: SIMULATED-TORIVUMAB-2026
  study_short: torivumab-nsclc-301
  sap_version: '0.2'
  protocol_version: '1.1'
  shells_version: '0.4'
  shells_date: '2026-09-20'
  author: Lovemore Gakava
  gate: '3.5'
  ars_alignment: CDISC ARS v1.0 concepts (not yet serialised to ARS JSON)
analysis_sets:
- id: ITT
  label: Intent-to-Treat
  definition: All randomised patients, analysed as randomised
  adsl_filter: ITTFL == 'Y'
  treatment_var: TRT01P
  expected_n: 450
- id: SAFETY
  label: Safety
  definition: All patients who received ≥1 dose, analysed as treated
  adsl_filter: SAFFL == 'Y'
  treatment_var: TRT01A
  expected_n: 450
- id: PP
  label: Per-Protocol
  definition: ITT ∩ SAFFL ∩ no major protocol deviations
  adsl_filter: PPROTFL == 'Y'
  treatment_var: TRT01P
  expected_n: 405
- id: RESPEVAL
  label: Response Evaluable
  definition: ITT with ≥1 post-baseline tumour assessment OR clinical progression before first assessment
  adsl_filter: ITTFL == 'Y'
  adrs_filter: EFFFL == 'Y'
  treatment_var: TRT01P
  expected_n: 440
- id: RESPONDERS
  label: Confirmed Responders
  definition: Subset of Response Evaluable with confirmed BOR ∈ {CR, PR}
  adsl_filter: ITTFL == 'Y'
  adrs_filter: EFFFL == 'Y' & AVALC %in% c('CR','PR') & ANL01FL == 'Y'
  treatment_var: TRT01P
  expected_n: null
methods:
- id: M-STRAT-LOGRANK
  name: Stratified Log-Rank Test
  description: Two-sided stratified log-rank test of treatment equality in time-to-event.
  strata:
  - STRAT2
  - STRAT3
  r_package: survival
  r_function: survdiff(..., rho = 0)
- id: M-COX-STRAT
  name: Stratified Cox Proportional Hazards
  description: Stratified Cox PH model to estimate HR and 95% CI.
  strata:
  - STRAT2
  - STRAT3
  r_package: survival
  r_function: coxph(Surv(AVAL,1-CNSR) ~ TRT01P + strata(STRAT2,STRAT3))
- id: M-KM-MEDIAN
  name: Kaplan-Meier Median
  description: Median survival with 95% CI using Brookmeyer-Crowley (log-log).
  r_package: survival
  r_function: survfit(..., conf.type = 'log-log')
- id: M-KM-PROB
  name: Kaplan-Meier Survival Probability
  description: Survival probability at specified timepoints with Greenwood 95% CI.
  r_package: survival
  r_function: summary(survfit(...), times = t)
- id: M-CMH-STRAT
  name: Stratified Cochran-Mantel-Haenszel
  description: Stratified MH test of proportion equality; MH risk difference + 95% CI.
  strata:
  - STRAT2
  - STRAT3
  r_package: stats
  r_function: mantelhaen.test(...)
- id: M-CLOPPER
  name: Clopper-Pearson Exact 95% CI
  description: Exact binomial confidence interval for proportions.
  r_package: stats
  r_function: binom.test(...)
- id: M-WILSON
  name: Wilson Score 95% CI
  description: Wilson score interval for proportions — sensitivity for Clopper-Pearson.
  r_package: DescTools
  r_function: BinomCI(..., method='wilson')
- id: M-RMST
  name: Restricted Mean Survival Time
  description: RMST at τ = 36 months; RMST difference with 95% CI.
  r_package: survRM2
  r_function: rmst2(..., tau = 36)
- id: M-LANDMARK
  name: Landmark Survival Comparison
  description: Difference in KM survival probability at landmark timepoints with 95% CI (log-log).
  r_package: survival
  r_function: summary(survfit(...), times = c(12, 24))
- id: M-DESCR-CAT
  name: Descriptive — Categorical
  description: n (%) of subjects per level.
  r_package: rtables
- id: M-DESCR-CONT
  name: Descriptive — Continuous
  description: n, mean (SD), median, min, max per group.
  r_package: rtables
- id: M-EAIR
  name: Exposure-Adjusted Incidence Rate
  description: Events per 100 patient-years (person-time = TRTDURD summed).
  r_package: tern
- id: M-KM-TTE-ONSET
  name: Time-to-Onset / Resolution (KM)
  description: Kaplan-Meier for time to irAE onset or resolution.
  r_package: survival
- id: M-FOREST-SUBGROUP
  name: Subgroup Forest (Unstratified Cox)
  description: Per-subgroup unstratified Cox HR + 95% CI; overall stratified HR.
  r_package: survival
  r_function: coxph per subgroup level
- id: M-SHIFT
  name: Shift Table (Baseline → Worst Post-Baseline)
  description: Cross-tabulation of BNRIND × worst ANRIND.
  r_package: rtables
- id: M-WATERFALL
  name: Waterfall (Best % Change)
  description: Per-subject bar of best % change from baseline SLD, sorted descending.
  r_package: ggplot2
- id: M-SPIDER
  name: Spider (Longitudinal % Change)
  description: Per-subject line of % change from baseline SLD over time.
  r_package: ggplot2
- id: M-SWIMMER
  name: Swimmer Lane (Responders)
  description: Per-responder horizontal lane with response episodes, PD, death markers.
  r_package: ggplot2
reference_documents:
- id: PROTO-1.2
  title: Protocol v1.2
  path: protocol/synopsis.md
- id: SAP-0.3
  title: Statistical Analysis Plan v0.3
  path: sap/SAP.md
- id: CRF-2.0
  title: CRF Strategy v2.0
  path: crf/CRF-STRATEGY.md
outputs:
- id: T-DM-01
  kind: table
  title: Demographic and Baseline Characteristics
  analysis_set: ITT
  reason: SPECIFIED IN SAP
  purpose: SUBJECT CHARACTERISTICS
  source_datasets:
  - ADSL
  parameter_codes: []
  key_variables:
  - TRT01P
  - AGE
  - AGEGR1
  - SEX
  - RACE
  - ETHNIC
  - REGION1
  - HISTSCAT
  - BECOG
  - PDL1GR
  - STRAT1
  - STRAT2
  - STRAT3
  methods:
  - M-DESCR-CAT
  - M-DESCR-CONT
  sap_ref: §3.1
  reference_documents:
  - SAP-0.3
  - PROTO-1.2
  layout:
    rows: One row per baseline characteristic
    columns: TRT01P arms + Total (three columns)
  notes: 'Descriptive: n (%) for categorical; n, mean (SD), median, min, max for continuous.

    '
  annotations:
    population: 'ADSL: ITTFL=''Y''  |  analysis by TRT01P'
    primary_dataset: ADSL WHERE ITTFL='Y'
    rows:
    - row: Age (n, mean, SD, median, min, max)
      dataset: ADSL
      where: ITTFL='Y'
      variable: AGE
      derivation: n/mean/SD/median/min/max
    - row: Age group < 65 / >= 65, n (%)
      dataset: ADSL
      where: ITTFL='Y'
      variable: AGEGR1
      derivation: n(%)
    - row: Sex (Female/Male), n (%)
      dataset: ADSL
      where: ITTFL='Y'
      variable: SEX
      derivation: n(%)
    - row: Race, n (%)
      dataset: ADSL
      where: ITTFL='Y'
      variable: RACE
      derivation: n(%)
    - row: Ethnicity, n (%)
      dataset: ADSL
      where: ITTFL='Y'
      variable: ETHNIC
      derivation: n(%)
    - row: Region, n (%)
      dataset: ADSL
      where: ITTFL='Y'
      variable: REGION1
      derivation: n(%)
    - row: Histology category, n (%)
      dataset: ADSL
      where: ITTFL='Y'
      variable: 'HISTSCAT  # study-specific'
      derivation: n(%)
    - row: ECOG PS at baseline, n (%)
      dataset: ADSL
      where: ITTFL='Y'
      variable: 'BECOG  # study-specific'
      derivation: n(%)
    - row: PD-L1 TPS group, n (%)
      dataset: ADSL
      where: ITTFL='Y'
      variable: 'PDL1GR  # study-specific'
      derivation: n(%)
    note: Preliminary v0.1 — based on AD*-spec.md; confirm after Phase 5 ADaM delivery.
- id: T-DS-01
  kind: table
  title: Subject Disposition
  analysis_set: ITT
  reason: SPECIFIED IN SAP
  purpose: SUBJECT DISPOSITION
  source_datasets:
  - ADSL
  parameter_codes: []
  key_variables:
  - ITTFL
  - SAFFL
  - PPROTFL
  - EFFFL
  - EOSSTT
  - DCSREAS
  - DTHFL
  - RFICDT
  - RANDDT
  - TRTSDT
  - TRTEDT
  - EOSDT
  methods:
  - M-DESCR-CAT
  sap_ref: §3
  reference_documents:
  - SAP-0.3
  layout:
    rows: Screened / Randomised / ITT / Safety / PP / Response Evaluable / Discontinued (by reason) / Completed / Ongoing
      / Died
    columns: TRT01P
  notes: Counts and percentages for each category.
  annotations:
    population: 'ADSL: ITTFL=''Y''  |  analysis by TRT01P'
    primary_dataset: ADSL WHERE ITTFL='Y'
    rows:
    - row: Randomised / ITT
      dataset: ADSL
      where: ITTFL='Y'
      variable: USUBJID
      derivation: n()
    - row: Safety population
      dataset: ADSL
      where: SAFFL='Y'
      variable: USUBJID
      derivation: n()
    - row: Per-Protocol population
      dataset: ADSL
      where: PPROTFL='Y'
      variable: USUBJID
      derivation: n()
    - row: Response Evaluable population
      dataset: ADRS
      where: EFFFL='Y'
      variable: USUBJID
      derivation: n() distinct
    - row: Ongoing at data cutoff
      dataset: ADSL
      where: EOSSTT='ONGOING'
      variable: USUBJID
      derivation: n(%)
    - row: Completed study treatment
      dataset: ADSL
      where: EOSSTT='COMPLETED'
      variable: USUBJID
      derivation: n(%)
    - row: Discontinued (by reason)
      dataset: ADSL
      where: EOSSTT='DISCONTINUED'
      variable: DCSREAS
      derivation: n(%) by level
    - row: Died on study
      dataset: ADSL
      where: DTHFL='Y'
      variable: DTHFL
      derivation: n(%)
    note: Preliminary v0.1 — based on AD*-spec.md; confirm after Phase 5 ADaM delivery.
- id: T-DS-02
  kind: table
  title: Major Protocol Deviations
  analysis_set: ITT
  reason: SPECIFIED IN SAP
  purpose: SUBJECT DISPOSITION
  source_datasets:
  - ADSL
  - SDTM.DS
  parameter_codes: []
  key_variables:
  - TRT01P
  - USUBJID
  methods:
  - M-DESCR-CAT
  sap_ref: §3.2
  reference_documents:
  - SAP-0.3
  layout:
    rows: Deviation category
    columns: TRT01P + Total
  notes: 'n (%) subjects with ≥1 major deviation by category. Source: SDTM.DS where DSDECOD=''PROTOCOL DEVIATION'' AND DSSCAT=''MAJOR''.'
  annotations:
    population: 'ADSL: ITTFL=''Y''  |  analysis by TRT01P'
    primary_dataset: ADSL WHERE PPROTFL='N' (major deviations) + SDTM.DS
    rows:
    - row: Subjects with >= 1 major deviation
      dataset: ADSL
      where: PPROTFL='N'
      variable: USUBJID
      derivation: n(%)
    - row: Eligibility criteria violated
      dataset: SDTM.DS
      where: DSDECOD='PROTOCOL DEVIATION' AND DSSCAT='MAJOR'
      variable: DSTERM
      derivation: n(%) by category
    - row: Randomised but never dosed
      dataset: ADSL
      where: SAFFL='N' AND ITTFL='Y'
      variable: USUBJID
      derivation: n(%)
    - row: Prohibited concomitant medication
      dataset: SDTM.DS
      where: DSDECOD='PROTOCOL DEVIATION' AND DSSCAT='MAJOR'
      variable: DSTERM
      derivation: n(%) by category
    - row: '>= 2 consecutive missed tumour assessments'
      dataset: SDTM.DS
      where: DSDECOD='PROTOCOL DEVIATION' AND DSSCAT='MAJOR'
      variable: DSTERM
      derivation: n(%) by category
    note: Preliminary v0.1 — based on AD*-spec.md; confirm after Phase 5 ADaM delivery.
- id: T-DS-03
  kind: table
  title: Intercurrent Events Summary
  analysis_set: ITT
  reason: SPECIFIED IN SAP
  purpose: SUBJECT DISPOSITION
  source_datasets:
  - ADSL
  - ADAE
  - ADTTE
  - SDTM.CM
  parameter_codes: []
  key_variables:
  - TRT01P
  - USUBJID
  methods:
  - M-DESCR-CAT
  sap_ref: §13.3
  reference_documents:
  - SAP-0.3
  layout:
    rows: Intercurrent event category (matches SAP §13.3 IE taxonomy)
    columns: TRT01P + Total
  notes: 'n (%) subjects experiencing each pre-specified IE. Supports reviewer
    judgement of whether the chosen IE handling strategies (§13.3) remain
    appropriate given observed IE frequencies.'
  annotations:
    population: 'ADSL: ITTFL=''Y''  |  analysis by TRT01P'
    primary_dataset: ADSL JOIN ADAE / ADTTE / SDTM.CM
    rows:
    - row: Treatment discontinuation (any reason)
      dataset: ADSL
      where: DCSREAS is not missing
      variable: USUBJID
      derivation: n(%) distinct subjects
    - row: Treatment discontinuation due to AE
      dataset: ADSL
      where: DCSREAS='ADVERSE EVENT'
      variable: USUBJID
      derivation: n(%) distinct subjects
    - row: Initiation of subsequent anti-cancer therapy
      dataset: SDTM.CM
      where: CMCAT='ANTI-CANCER' AND CMSTDTC > TRTEDT
      variable: USUBJID
      derivation: n(%) distinct subjects (requires SDTM.CM linkage; placeholder for
        ADCM if available)
    - row: '>= 2 consecutive missed scheduled tumour assessments'
      dataset: ADTTE
      where: PARAMCD='PFS' AND EVNTDESC contains 'missed'
      variable: USUBJID
      derivation: n(%) — flag derivable from PFS censoring reason
    - row: No post-baseline tumour assessment
      dataset: ADSL
      where: EFFFL='N' AND ITTFL='Y'
      variable: USUBJID
      derivation: n(%) — composite IE → counted as ORR non-responder
    - row: Death before first response assessment
      dataset: ADSL
      where: DTHFL='Y' AND DTHDT < first_RSDT
      variable: USUBJID
      derivation: n(%) — composite IE for ORR
    - row: Withdrawal of consent
      dataset: ADSL
      where: DCSREAS='WITHDRAWAL BY SUBJECT'
      variable: USUBJID
      derivation: n(%) distinct subjects
    note: 'New shell v0.2 — operationalises SAP §13.3 IE taxonomy. Phase 6 dependency:
      confirms IE counts are stable before downstream sensitivity estimands (E1b, E3a)
      are reported.'
- id: T-EX-01
  kind: table
  title: Study Drug Exposure
  analysis_set: SAFETY
  reason: SPECIFIED IN SAP
  purpose: EXPOSURE
  source_datasets:
  - ADSL
  parameter_codes: []
  key_variables:
  - TRT01A
  - TRTSDT
  - TRTEDT
  - TRTDURD
  - N_CYCLES
  - CUMDOSE
  methods:
  - M-DESCR-CONT
  - M-DESCR-CAT
  sap_ref: §5.5
  reference_documents:
  - SAP-0.3
  layout:
    rows: Median (min–max) treatment duration; mean (SD) cycles received; n (%) with ≥6/≥12/≥24 cycles; relative dose intensity
    columns: TRT01A
  notes: 'Exposure summaries computed from ADSL (TRTDURD, N_CYCLES, CUMDOSE) — no separate ADEX dataset in scope.

    '
  annotations:
    population: 'ADSL: SAFFL=''Y''  |  analysis by TRT01A'
    primary_dataset: ADSL WHERE SAFFL='Y'
    rows:
    - row: Treatment duration (months) — median (min, max)
      dataset: ADSL
      where: SAFFL='Y'
      variable: TRTDURD
      derivation: median/min/max (TRTDURD/30.4375)
    - row: Treatment duration — mean (SD)
      dataset: ADSL
      where: SAFFL='Y'
      variable: TRTDURD
      derivation: mean/SD
    - row: '>= 6 / 12 / 24 cycles, n (%)'
      dataset: ADSL
      where: SAFFL='Y'
      variable: 'N_CYCLES  # study-specific'
      derivation: n(%) where N_CYCLES >= threshold
    - row: Cumulative dose (mg) — mean (SD)
      dataset: ADSL
      where: SAFFL='Y'
      variable: 'CUMDOSE  # study-specific'
      derivation: mean/SD
    - row: Relative dose intensity (%) — mean (SD)
      dataset: ADSL
      where: SAFFL='Y'
      variable: 'RDOSE  # study-specific'
      derivation: mean/SD (actual/planned x 100)
    note: Preliminary v0.1 — based on AD*-spec.md; confirm after Phase 5 ADaM delivery.
- id: T-EFF-01
  kind: table
  title: Overall Survival Analysis (Primary)
  analysis_set: ITT
  reason: SPECIFIED IN PROTOCOL
  purpose: PRIMARY OUTCOME MEASURE
  source_datasets:
  - ADTTE
  parameter_codes:
  - OS
  key_variables:
  - TRT01P
  - AVAL
  - CNSR
  - STRAT2
  - STRAT3
  methods:
  - M-STRAT-LOGRANK
  - M-COX-STRAT
  - M-KM-MEDIAN
  sap_ref: §5.1
  estimand_id: E1
  reference_documents:
  - SAP-0.3
  - PROTO-1.2
  layout:
    rows: n, events, censored, median OS (95% CI), HR (95% CI), stratified log-rank p
    columns: TRT01P
  notes: 'Primary analysis. Triggered at ~320 OS events (event-driven, Protocol §8.1). Strata: histology (STRAT2), region
    (STRAT3).'
  annotations:
    population: 'ADSL: ITTFL=''Y''  |  analysis by TRT01P'
    primary_dataset: ADTTE WHERE PARAMCD='OS'
    rows:
    - row: Number of subjects
      dataset: ADTTE
      where: PARAMCD='OS'
      variable: USUBJID
      derivation: n() distinct
    - row: Events (deaths), n (%)
      dataset: ADTTE
      where: PARAMCD='OS' AND CNSR=0
      variable: CNSR
      derivation: sum(1-CNSR) / N
    - row: Censored, n (%)
      dataset: ADTTE
      where: PARAMCD='OS' AND CNSR=1
      variable: CNSR
      derivation: sum(CNSR) / N
    - row: Median OS (months)
      dataset: ADTTE
      where: PARAMCD='OS'
      variable: AVAL
      derivation: survfit(Surv(AVAL,1-CNSR)~TRT01P+strata(STRAT2,STRAT3)) -> median / 30.4375
    - row: 95% CI (Brookmeyer-Crowley)
      dataset: ADTTE
      where: PARAMCD='OS'
      variable: AVAL
      derivation: survfit(..., conf.type='log-log') -> lower/upper
    - row: Hazard Ratio (Cox stratified)
      dataset: ADTTE
      where: PARAMCD='OS'
      variable: AVAL,CNSR
      derivation: coxph(Surv(AVAL,1-CNSR)~TRT01P+strata(STRAT2,STRAT3)) -> exp(coef)
    - row: HR 95% CI
      dataset: ADTTE
      where: PARAMCD='OS'
      variable: AVAL,CNSR
      derivation: coxph(...) -> confint -> exp
    - row: Stratified log-rank p-value
      dataset: ADTTE
      where: PARAMCD='OS'
      variable: AVAL,CNSR
      derivation: survdiff(Surv(AVAL,1-CNSR)~TRT01P+strata(STRAT2,STRAT3), rho=0) -> p
    note: Preliminary v0.1 — based on AD*-spec.md; confirm after Phase 5 ADaM delivery.
- id: T-EFF-02
  kind: table
  estimand_id: E1
  title: Kaplan-Meier Survival Probabilities — OS
  analysis_set: ITT
  reason: SPECIFIED IN SAP
  purpose: PRIMARY OUTCOME MEASURE
  source_datasets:
  - ADTTE
  parameter_codes:
  - OS
  key_variables:
  - TRT01P
  - AVAL
  - CNSR
  methods:
  - M-KM-PROB
  sap_ref: §5.1
  reference_documents:
  - SAP-0.3
  layout:
    rows: Timepoints 6, 12, 18, 24 months
    columns: TRT01P — probability, 95% CI
  notes: Greenwood 95% CI.
  annotations:
    population: 'ADSL: ITTFL=''Y''  |  analysis by TRT01P'
    primary_dataset: ADTTE WHERE PARAMCD='OS'
    rows:
    - row: Survival probability at 6 months
      dataset: ADTTE
      where: PARAMCD='OS'
      variable: AVAL,CNSR
      derivation: summary(survfit(...), times=6*30.4375) -> surv
    - row: Survival probability at 12 months
      dataset: ADTTE
      where: PARAMCD='OS'
      variable: AVAL,CNSR
      derivation: summary(survfit(...), times=12*30.4375) -> surv
    - row: Survival probability at 18 months
      dataset: ADTTE
      where: PARAMCD='OS'
      variable: AVAL,CNSR
      derivation: summary(survfit(...), times=18*30.4375) -> surv
    - row: Survival probability at 24 months
      dataset: ADTTE
      where: PARAMCD='OS'
      variable: AVAL,CNSR
      derivation: summary(survfit(...), times=24*30.4375) -> surv
    - row: 95% CI (Greenwood, log-log)
      dataset: ADTTE
      where: PARAMCD='OS'
      variable: AVAL,CNSR
      derivation: survfit(..., conf.type='log-log') -> lower/upper at each timepoint
    note: Preliminary v0.1 — based on AD*-spec.md; confirm after Phase 5 ADaM delivery.
- id: T-EFF-03
  kind: table
  estimand_id: E2
  title: Progression-Free Survival Analysis (BICR)
  analysis_set: ITT
  reason: SPECIFIED IN PROTOCOL
  purpose: SECONDARY OUTCOME MEASURE
  source_datasets:
  - ADTTE
  parameter_codes:
  - PFS
  key_variables:
  - TRT01P
  - AVAL
  - CNSR
  - STRAT2
  - STRAT3
  methods:
  - M-STRAT-LOGRANK
  - M-COX-STRAT
  - M-KM-MEDIAN
  sap_ref: §5.2
  reference_documents:
  - SAP-0.3
  layout:
    rows: n, events, censored, median PFS (95% CI), HR (95% CI), stratified log-rank p
    columns: TRT01P
  notes: Same structure as T-EFF-01 for PFS.
  annotations:
    population: 'ADSL: ITTFL=''Y''  |  analysis by TRT01P'
    primary_dataset: ADTTE WHERE PARAMCD='PFS'
    rows:
    - row: Number of subjects
      dataset: ADTTE
      where: PARAMCD='PFS'
      variable: USUBJID
      derivation: n() distinct
    - row: Events (PD or death), n (%)
      dataset: ADTTE
      where: PARAMCD='PFS' AND CNSR=0
      variable: CNSR
      derivation: sum(1-CNSR) / N
    - row: Censored, n (%)
      dataset: ADTTE
      where: PARAMCD='PFS' AND CNSR=1
      variable: CNSR
      derivation: sum(CNSR) / N
    - row: Median PFS (months)
      dataset: ADTTE
      where: PARAMCD='PFS'
      variable: AVAL
      derivation: survfit(Surv(AVAL,1-CNSR)~TRT01P+strata(STRAT2,STRAT3)) -> median / 30.4375
    - row: 95% CI (Brookmeyer-Crowley)
      dataset: ADTTE
      where: PARAMCD='PFS'
      variable: AVAL
      derivation: survfit(..., conf.type='log-log') -> lower/upper
    - row: Hazard Ratio (Cox stratified)
      dataset: ADTTE
      where: PARAMCD='PFS'
      variable: AVAL,CNSR
      derivation: coxph(Surv(AVAL,1-CNSR)~TRT01P+strata(STRAT2,STRAT3)) -> exp(coef)
    - row: HR 95% CI
      dataset: ADTTE
      where: PARAMCD='PFS'
      variable: AVAL,CNSR
      derivation: coxph(...) -> confint -> exp
    - row: Stratified log-rank p-value
      dataset: ADTTE
      where: PARAMCD='PFS'
      variable: AVAL,CNSR
      derivation: survdiff(..., rho=0) -> p
    note: Preliminary v0.1 — based on AD*-spec.md; confirm after Phase 5 ADaM delivery.
- id: T-EFF-04
  kind: table
  estimand_id: E2
  title: Kaplan-Meier Probabilities — PFS
  analysis_set: ITT
  reason: SPECIFIED IN SAP
  purpose: SECONDARY OUTCOME MEASURE
  source_datasets:
  - ADTTE
  parameter_codes:
  - PFS
  key_variables:
  - TRT01P
  - AVAL
  - CNSR
  methods:
  - M-KM-PROB
  sap_ref: §5.2
  reference_documents:
  - SAP-0.3
  layout:
    rows: Timepoints 6, 12, 18, 24 months
    columns: TRT01P — probability, 95% CI
  notes: Greenwood 95% CI.
  annotations:
    population: 'ADSL: ITTFL=''Y''  |  analysis by TRT01P'
    primary_dataset: ADTTE WHERE PARAMCD='PFS'
    rows:
    - row: PFS probability at 6 months
      dataset: ADTTE
      where: PARAMCD='PFS'
      variable: AVAL,CNSR
      derivation: summary(survfit(...), times=6*30.4375) -> surv
    - row: PFS probability at 12 months
      dataset: ADTTE
      where: PARAMCD='PFS'
      variable: AVAL,CNSR
      derivation: summary(survfit(...), times=12*30.4375) -> surv
    - row: PFS probability at 18 months
      dataset: ADTTE
      where: PARAMCD='PFS'
      variable: AVAL,CNSR
      derivation: summary(survfit(...), times=18*30.4375) -> surv
    - row: PFS probability at 24 months
      dataset: ADTTE
      where: PARAMCD='PFS'
      variable: AVAL,CNSR
      derivation: summary(survfit(...), times=24*30.4375) -> surv
    - row: 95% CI (Greenwood, log-log)
      dataset: ADTTE
      where: PARAMCD='PFS'
      variable: AVAL,CNSR
      derivation: survfit(..., conf.type='log-log') -> lower/upper at each timepoint
    note: Preliminary v0.1 — based on AD*-spec.md; confirm after Phase 5 ADaM delivery.
- id: T-EFF-05
  kind: table
  estimand_id: E3
  title: Objective Response Rate (BICR)
  analysis_set: RESPEVAL
  reason: SPECIFIED IN PROTOCOL
  purpose: SECONDARY OUTCOME MEASURE
  source_datasets:
  - ADRS
  - ADSL
  parameter_codes:
  - CBOR
  key_variables:
  - TRT01P
  - AVALC
  - ORRFL
  - STRAT2
  - STRAT3
  methods:
  - M-CMH-STRAT
  - M-CLOPPER
  - M-WILSON
  sap_ref: §5.3
  reference_documents:
  - SAP-0.3
  layout:
    rows: N, n responders, ORR % (95% CI), risk difference (95% CI), CMH p; best response breakdown (CR/PR/SD/PD/NE)
    columns: TRT01P
  notes: Clopper-Pearson 95% CI primary; Wilson as sensitivity row. Subjects with no post-baseline assessment counted as non-responders
    (§4.3).
  annotations:
    population: 'ADSL: ITTFL=''Y'' + ADRS: EFFFL=''Y''  |  analysis by TRT01P'
    primary_dataset: ADRS WHERE PARAMCD='CBOR' + ADSL WHERE ITTFL='Y' AND EFFFL='Y'
    rows:
    - row: N (Response Evaluable)
      dataset: ADRS
      where: PARAMCD='CBOR' AND EFFFL='Y'
      variable: USUBJID
      derivation: n() distinct
    - row: Responders (confirmed CR+PR), n (%)
      dataset: ADRS
      where: PARAMCD='CBOR' AND ANL01FL='Y' AND AVALC IN ('CR','PR')
      variable: 'ORRFL  # study-specific'
      derivation: n(%) — ORRFL='Y'
    - row: 95% CI (Clopper-Pearson)
      dataset: ADRS
      where: PARAMCD='CBOR'
      variable: 'ORRFL  # study-specific'
      derivation: binom.test(x,n) -> conf.int
    - row: 95% CI (Wilson — sensitivity)
      dataset: ADRS
      where: PARAMCD='CBOR'
      variable: 'ORRFL  # study-specific'
      derivation: BinomCI(x,n,method='wilson')
    - row: Risk Difference (MH)
      dataset: ADRS
      where: PARAMCD='CBOR'
      variable: 'ORRFL  # study-specific'
      derivation: mantelhaen.test -> estimate
    - row: Stratified CMH p-value
      dataset: ADRS
      where: PARAMCD='CBOR'
      variable: 'ORRFL  # study-specific'
      derivation: mantelhaen.test -> p.value
    - row: BOR breakdown (CR/PR/SD/PD/NE)
      dataset: ADRS
      where: PARAMCD='CBOR' AND ANL01FL='Y'
      variable: AVALC
      derivation: n(%) by AVALC level
    note: Preliminary v0.1 — based on AD*-spec.md; confirm after Phase 5 ADaM delivery.
- id: T-EFF-06
  kind: table
  estimand_id: E5
  title: Disease Control Rate
  analysis_set: RESPEVAL
  reason: SPECIFIED IN PROTOCOL
  purpose: SECONDARY OUTCOME MEASURE
  source_datasets:
  - ADRS
  - ADSL
  parameter_codes:
  - CBDCR
  key_variables:
  - TRT01P
  - AVALC
  - DCRFL
  - STRAT2
  - STRAT3
  methods:
  - M-CMH-STRAT
  - M-CLOPPER
  sap_ref: §5.3
  reference_documents:
  - SAP-0.3
  layout:
    rows: Same as T-EFF-05
    columns: TRT01P
  notes: Uses DCRFL. SD requires duration ≥8 weeks from randomisation.
  annotations:
    population: 'ADSL: ITTFL=''Y'' + ADRS: EFFFL=''Y''  |  analysis by TRT01P'
    primary_dataset: ADRS WHERE PARAMCD='CBDCR' + ADSL WHERE ITTFL='Y' AND EFFFL='Y'
    rows:
    - row: N (Response Evaluable)
      dataset: ADRS
      where: PARAMCD='CBDCR' AND EFFFL='Y'
      variable: USUBJID
      derivation: n() distinct
    - row: DCR (CR+PR+SD>=8wks), n (%)
      dataset: ADRS
      where: PARAMCD='CBDCR' AND ANL01FL='Y' AND AVALC IN ('CR','PR','SD')
      variable: 'DCRFL  # study-specific'
      derivation: n(%) — DCRFL='Y'
    - row: 95% CI (Clopper-Pearson)
      dataset: ADRS
      where: PARAMCD='CBDCR'
      variable: 'DCRFL  # study-specific'
      derivation: binom.test(x,n) -> conf.int
    - row: Risk Difference + CMH p-value
      dataset: ADRS
      where: PARAMCD='CBDCR'
      variable: 'DCRFL  # study-specific'
      derivation: mantelhaen.test -> estimate, p.value
    note: Preliminary v0.1 — based on AD*-spec.md; confirm after Phase 5 ADaM delivery.
- id: T-EFF-07
  kind: table
  estimand_id: E4
  title: Duration of Response
  analysis_set: RESPONDERS
  reason: SPECIFIED IN SAP
  purpose: SECONDARY OUTCOME MEASURE
  source_datasets:
  - ADTTE
  parameter_codes:
  - DOR
  key_variables:
  - TRT01P
  - AVAL
  - CNSR
  methods:
  - M-KM-MEDIAN
  - M-KM-PROB
  sap_ref: §5.4
  reference_documents:
  - SAP-0.3
  layout:
    rows: Median DoR (95% CI); proportion with DoR ≥6 mo, ≥12 mo
    columns: TRT01P
  notes: No formal between-arm test (hypothesis-generating).
  annotations:
    population: 'ADSL: ITTFL=''Y'' + ADRS: EFFFL=''Y'' AND ANL01FL=''Y'' AND AVALC IN (''CR'',''PR'')  |  analysis by TRT01P'
    primary_dataset: ADTTE WHERE PARAMCD='DOR'
    rows:
    - row: Confirmed responders, n
      dataset: ADTTE
      where: PARAMCD='DOR'
      variable: USUBJID
      derivation: n() distinct
    - row: Median DoR (months)
      dataset: ADTTE
      where: PARAMCD='DOR'
      variable: AVAL
      derivation: survfit(Surv(AVAL,1-CNSR)~TRT01P) -> median / 30.4375
    - row: 95% CI (Brookmeyer-Crowley)
      dataset: ADTTE
      where: PARAMCD='DOR'
      variable: AVAL
      derivation: survfit(..., conf.type='log-log') -> lower/upper
    - row: DoR >= 6 months, n (%)
      dataset: ADTTE
      where: PARAMCD='DOR' AND CNSR=0
      variable: AVAL
      derivation: n(%) where AVAL >= 6*30.4375
    - row: DoR >= 12 months, n (%)
      dataset: ADTTE
      where: PARAMCD='DOR' AND CNSR=0
      variable: AVAL
      derivation: n(%) where AVAL >= 12*30.4375
    note: Preliminary v0.1 — based on AD*-spec.md; confirm after Phase 5 ADaM delivery.
- id: T-EFF-08
  kind: table
  title: OS in Per-Protocol Population (Sensitivity)
  analysis_set: PP
  reason: SPECIFIED IN SAP
  purpose: SECONDARY OUTCOME MEASURE
  source_datasets:
  - ADTTE
  parameter_codes:
  - OS
  key_variables:
  - TRT01P
  - AVAL
  - CNSR
  - STRAT2
  - STRAT3
  methods:
  - M-STRAT-LOGRANK
  - M-COX-STRAT
  - M-KM-MEDIAN
  sap_ref: §11
  reference_documents:
  - SAP-0.3
  layout:
    rows: Same as T-EFF-01
    columns: TRT01P
  notes: Sensitivity — primary OS re-run on PP population.
  annotations:
    population: 'ADSL: PPROTFL=''Y''  |  analysis by TRT01P'
    primary_dataset: ADTTE WHERE PARAMCD='OS' (PP sensitivity)
    rows:
    - row: Number of subjects
      dataset: ADTTE
      where: 'PARAMCD=''OS'' (PP: PPROTFL=''Y'')'
      variable: USUBJID
      derivation: n() distinct
    - row: Events (deaths), n (%)
      dataset: ADTTE
      where: PARAMCD='OS' AND CNSR=0
      variable: CNSR
      derivation: sum(1-CNSR) / N
    - row: Censored, n (%)
      dataset: ADTTE
      where: PARAMCD='OS' AND CNSR=1
      variable: CNSR
      derivation: sum(CNSR) / N
    - row: Median OS (months)
      dataset: ADTTE
      where: PARAMCD='OS'
      variable: AVAL
      derivation: survfit -> median / 30.4375
    - row: HR (Cox stratified) + 95% CI
      dataset: ADTTE
      where: PARAMCD='OS'
      variable: AVAL,CNSR
      derivation: coxph -> exp(coef), confint
    - row: Stratified log-rank p-value
      dataset: ADTTE
      where: PARAMCD='OS'
      variable: AVAL,CNSR
      derivation: survdiff -> p
    note: Preliminary v0.1 — based on AD*-spec.md; confirm after Phase 5 ADaM delivery.
- id: T-EFF-09
  kind: table
  title: OS Landmark Analysis
  analysis_set: ITT
  reason: SPECIFIED IN SAP
  purpose: PRIMARY OUTCOME MEASURE
  source_datasets:
  - ADTTE
  parameter_codes:
  - OS
  key_variables:
  - TRT01P
  - AVAL
  - CNSR
  methods:
  - M-LANDMARK
  sap_ref: §11
  reference_documents:
  - SAP-0.3
  layout:
    rows: 12 months, 24 months
    columns: TRT01P probability, difference (95% CI)
  notes: Difference in survival probability with 95% CI (log-log).
  annotations:
    population: 'ADSL: ITTFL=''Y''  |  analysis by TRT01P'
    primary_dataset: ADTTE WHERE PARAMCD='OS'
    rows:
    - row: OS probability at 12 months per arm
      dataset: ADTTE
      where: PARAMCD='OS'
      variable: AVAL,CNSR
      derivation: summary(survfit(...), times=365.25) -> surv per TRT01P
    - row: OS probability at 24 months per arm
      dataset: ADTTE
      where: PARAMCD='OS'
      variable: AVAL,CNSR
      derivation: summary(survfit(...), times=730.5) -> surv per TRT01P
    - row: Difference (Torivumab - Placebo), 95% CI
      dataset: ADTTE
      where: PARAMCD='OS'
      variable: AVAL,CNSR
      derivation: surv_diff = surv_arm1 - surv_arm2; CI via Greenwood log-log
    note: Preliminary v0.1 — based on AD*-spec.md; confirm after Phase 5 ADaM delivery.
- id: T-EFF-10
  kind: table
  estimand_id: E1a
  title: Restricted Mean Survival Time (OS)
  analysis_set: ITT
  reason: SPECIFIED IN SAP
  purpose: PRIMARY OUTCOME MEASURE
  source_datasets:
  - ADTTE
  parameter_codes:
  - OS
  key_variables:
  - TRT01P
  - AVAL
  - CNSR
  methods:
  - M-RMST
  sap_ref: §11
  reference_documents:
  - SAP-0.3
  layout:
    rows: RMST per arm; RMST difference (95% CI)
    columns: TRT01P
  notes: τ = 36 months.
  annotations:
    population: 'ADSL: ITTFL=''Y''  |  analysis by TRT01P'
    primary_dataset: ADTTE WHERE PARAMCD='OS'
    rows:
    - row: RMST Torivumab (tau=36 months)
      dataset: ADTTE
      where: PARAMCD='OS'
      variable: AVAL,CNSR
      derivation: rmst2(AVAL, 1-CNSR, arm, tau=36*30.4375) -> RMST arm 1 / 30.4375
    - row: RMST Placebo (tau=36 months)
      dataset: ADTTE
      where: PARAMCD='OS'
      variable: AVAL,CNSR
      derivation: rmst2(...) -> RMST arm 0 / 30.4375
    - row: RMST Difference + 95% CI
      dataset: ADTTE
      where: PARAMCD='OS'
      variable: AVAL,CNSR
      derivation: rmst2(...) -> unadjusted diff, lower, upper
    - row: p-value
      dataset: ADTTE
      where: PARAMCD='OS'
      variable: AVAL,CNSR
      derivation: rmst2(...) -> p-value
    note: Preliminary v0.1 — based on AD*-spec.md; confirm after Phase 5 ADaM delivery.
- id: T-EFF-11
  kind: table
  estimand_id: E2a
  title: PFS by Investigator (Sensitivity)
  analysis_set: ITT
  reason: SPECIFIED IN SAP
  purpose: SECONDARY OUTCOME MEASURE
  source_datasets:
  - ADTTE
  parameter_codes:
  - PFSINV
  key_variables:
  - TRT01P
  - AVAL
  - CNSR
  - STRAT2
  - STRAT3
  methods:
  - M-STRAT-LOGRANK
  - M-COX-STRAT
  - M-KM-MEDIAN
  sap_ref: §4.2
  reference_documents:
  - SAP-0.3
  layout:
    rows: Same as T-EFF-03
    columns: TRT01P
  notes: Requires PARAMCD='PFSINV' in ADTTE.
  annotations:
    population: 'ADSL: ITTFL=''Y''  |  analysis by TRT01P'
    primary_dataset: ADTTE WHERE PARAMCD='PFSINV'
    rows:
    - row: Number of subjects
      dataset: ADTTE
      where: PARAMCD='PFSINV'
      variable: USUBJID
      derivation: n() distinct
    - row: Events (PD or death), n (%)
      dataset: ADTTE
      where: PARAMCD='PFSINV' AND CNSR=0
      variable: CNSR
      derivation: sum(1-CNSR) / N
    - row: Censored, n (%)
      dataset: ADTTE
      where: PARAMCD='PFSINV' AND CNSR=1
      variable: CNSR
      derivation: sum(CNSR) / N
    - row: Median PFS-INV (months)
      dataset: ADTTE
      where: PARAMCD='PFSINV'
      variable: AVAL
      derivation: survfit -> median / 30.4375
    - row: HR (Cox stratified) + 95% CI
      dataset: ADTTE
      where: PARAMCD='PFSINV'
      variable: AVAL,CNSR
      derivation: coxph -> exp(coef), confint
    - row: Stratified log-rank p-value
      dataset: ADTTE
      where: PARAMCD='PFSINV'
      variable: AVAL,CNSR
      derivation: survdiff -> p
    note: Preliminary v0.1 — based on AD*-spec.md; confirm after Phase 5 ADaM delivery.
- id: T-EFF-12
  kind: table
  estimand_id: E1b
  title: Overall Survival — While-on-Treatment Sensitivity
  analysis_set: ITT
  reason: SPECIFIED IN SAP
  purpose: SECONDARY OUTCOME MEASURE
  source_datasets:
  - ADTTE
  parameter_codes:
  - OSWOT
  key_variables:
  - TRT01P
  - AVAL
  - CNSR
  - STRAT2
  - STRAT3
  methods:
  - M-STRAT-LOGRANK
  - M-COX-STRAT
  - M-KM-MEDIAN
  sap_ref: §13.4
  reference_documents:
  - SAP-0.3
  layout:
    rows: Same as T-EFF-01; identifies effect attributable to randomised treatment period only
    columns: TRT01P
  notes: 'Requires PARAMCD=''OSWOT'' in ADTTE — censors OS at min(start of subsequent
    anti-cancer therapy, TRTEDT + 30 days). Phase 5 ADaM gap: add OSWOT parameter to ADTTE
    via admiral::derive_param_tte with revised censor_conditions.'
  annotations:
    population: 'ADSL: ITTFL=''Y''  |  analysis by TRT01P'
    primary_dataset: ADTTE WHERE PARAMCD='OSWOT'
    rows:
    - row: Number of subjects
      dataset: ADTTE
      where: PARAMCD='OSWOT'
      variable: USUBJID
      derivation: n() distinct
    - row: Events (deaths on/within 30d of treatment), n (%)
      dataset: ADTTE
      where: PARAMCD='OSWOT' AND CNSR=0
      variable: CNSR
      derivation: sum(1-CNSR) / N
    - row: Censored (incl. censored at subsequent therapy start), n (%)
      dataset: ADTTE
      where: PARAMCD='OSWOT' AND CNSR=1
      variable: CNSR
      derivation: sum(CNSR) / N
    - row: Median OS-WOT (months)
      dataset: ADTTE
      where: PARAMCD='OSWOT'
      variable: AVAL
      derivation: survfit -> median / 30.4375
    - row: HR (Cox stratified) + 95% CI
      dataset: ADTTE
      where: PARAMCD='OSWOT'
      variable: AVAL,CNSR
      derivation: coxph -> exp(coef), confint
    - row: Stratified log-rank p-value
      dataset: ADTTE
      where: PARAMCD='OSWOT'
      variable: AVAL,CNSR
      derivation: survdiff -> p
    note: 'New shell v0.2 — supports SAP §13.4 sensitivity estimand E1b. ADaM impact:
      add OSWOT PARAMCD before Phase 6 TFL generation.'
- id: T-EFF-13
  kind: table
  estimand_id: E3a
  title: Objective Response Rate — ITT Denominator (Sensitivity)
  analysis_set: ITT
  reason: SPECIFIED IN SAP
  purpose: SECONDARY OUTCOME MEASURE
  source_datasets:
  - ADSL
  - ADRS
  parameter_codes:
  - CBOR
  key_variables:
  - TRT01P
  - ORRFL
  - STRAT2
  - STRAT3
  methods:
  - M-CMH-STRAT
  - M-CLOPPER
  sap_ref: §13.6
  reference_documents:
  - SAP-0.3
  layout:
    rows: 'Same as T-EFF-05 but denominator = ITT (450) rather than Response Evaluable.
      Subjects without post-baseline assessment counted as non-responders (composite IE strategy
      retained).'
    columns: TRT01P
  notes: Sensitivity estimand E3a — removes implicit selection in Response Evaluable
    by using ITT denominator. More conservative read.
  annotations:
    population: 'ADSL: ITTFL=''Y''  |  analysis by TRT01P'
    primary_dataset: ADSL JOIN ADRS WHERE PARAMCD='CBOR'
    rows:
    - row: Subjects in ITT, N
      dataset: ADSL
      where: ITTFL='Y'
      variable: USUBJID
      derivation: n() distinct
    - row: Responders (confirmed CR/PR), n (%)
      dataset: ADSL
      where: ITTFL='Y' AND ORRFL='Y'
      variable: ORRFL
      derivation: sum(ORRFL='Y') / N_ITT
    - row: Non-responders (incl. no post-baseline assessment), n (%)
      dataset: ADSL
      where: ITTFL='Y' AND (ORRFL='N' OR ORRFL is missing)
      variable: ORRFL
      derivation: complement of responders
    - row: Risk difference TRT - PBO (stratified MH) + 95% CI
      dataset: ADSL
      where: ITTFL='Y'
      variable: ORRFL,TRT01PN,STRAT2,STRAT3
      derivation: mantelhaen.test -> RD, 95% CI
    - row: Clopper-Pearson 95% CI per arm
      dataset: ADSL
      where: ITTFL='Y'
      variable: ORRFL
      derivation: binom.test by TRT01PN
    note: 'New shell v0.2 — supports SAP §13.6 sensitivity estimand E3a. No new ADaM
      variables required (uses existing ADSL.ORRFL).'
- id: T-AE-01
  kind: table
  title: Overall Summary of AEs
  analysis_set: SAFETY
  reason: SPECIFIED IN SAP
  purpose: SAFETY OUTCOME MEASURE
  source_datasets:
  - ADSL
  - ADAE
  parameter_codes: []
  key_variables:
  - TRT01A
  - TRTEMFL
  - AESER
  - AETOXGRN
  - IRAEFL
  - AEACN
  - TRTDURD
  methods:
  - M-DESCR-CAT
  - M-EAIR
  sap_ref: §5.5
  reference_documents:
  - SAP-0.3
  layout:
    rows: Any AE, any TEAE, any Grade ≥3 TEAE, any Grade 5 (fatal) TEAE, any SAE, any irAE, any TEAE → discontinuation, any TEAE → dose modification, total exposure (patient-years), TEAE events, exposure-adjusted TEAE rate
    columns: TRT01A + Total
  notes: n (%) of subjects. Final three rows are exposure-adjusted (estimand S2); rate numerator counts events, not subjects.
  annotations:
    population: 'ADSL: SAFFL=''Y''  |  analysis by TRT01A'
    primary_dataset: ADAE WHERE TRTEMFL='Y' + ADSL WHERE SAFFL='Y'
    rows:
    - row: Any AE
      dataset: ADAE
      where: SAFFL='Y'
      variable: USUBJID
      derivation: n(%) with >= 1 AE
    - row: Any TEAE
      dataset: ADAE
      where: TRTEMFL='Y'
      variable: USUBJID
      derivation: n(%) with >= 1 TRTEMFL='Y'
    - row: Any Grade >= 3 TEAE
      dataset: ADAE
      where: TRTEMFL='Y' AND AETOXGRN >= 3
      variable: USUBJID
      derivation: n(%) with >= 1 such event
    - row: Any Grade 5 (fatal) TEAE
      dataset: ADAE
      where: TRTEMFL='Y' AND AETOXGRN = 5
      variable: USUBJID
      derivation: n(%) with >= 1 such event
    - row: Any SAE
      dataset: ADAE
      where: AESER='Y'
      variable: USUBJID
      derivation: n(%) with >= 1 AESER='Y'
    - row: Any irAE
      dataset: ADAE
      where: 'IRAEFL=''Y''  # study-specific'
      variable: USUBJID
      derivation: n(%) IRAEFL='Y'
    - row: Any TEAE -> discontinuation
      dataset: ADAE
      where: TRTEMFL='Y' AND AEACN='DRUG WITHDRAWN'
      variable: USUBJID
      derivation: n(%)
    - row: Any TEAE -> dose modification
      dataset: ADAE
      where: TRTEMFL='Y' AND AEACN IN ('DOSE REDUCED','DRUG INTERRUPTED')
      variable: USUBJID
      derivation: n(%)
    - row: Total exposure (patient-years)
      dataset: ADSL
      where: SAFFL='Y'
      variable: TRTDURD
      derivation: sum(TRTDURD) / 365.25; TRTDURD = TRTEDT - TRTSDT + 1
    - row: TEAE events (n)
      dataset: ADAE
      where: TRTEMFL='Y'
      variable: USUBJID
      derivation: event count (rows), not distinct subjects
    - row: Exposure-adjusted TEAE rate
      dataset: ADAE + ADSL
      where: TRTEMFL='Y'
      variable: USUBJID
      derivation: events per 100 patient-years = 100 * events / sum(TRTDURD)/365.25 (M-EAIR, estimand S2)
    note: Preliminary v0.1 — based on AD*-spec.md; confirm after Phase 5 ADaM delivery.
- id: T-AE-02
  kind: table
  title: TEAEs by SOC and PT (≥5% any arm)
  analysis_set: SAFETY
  reason: SPECIFIED IN SAP
  purpose: SAFETY OUTCOME MEASURE
  source_datasets:
  - ADAE
  parameter_codes: []
  key_variables:
  - TRT01A
  - AEBODSYS
  - AEDECOD
  - TRTEMFL
  methods:
  - M-DESCR-CAT
  sap_ref: §5.5
  reference_documents:
  - SAP-0.3
  layout:
    rows: SOC (bold) → PT
    columns: TRT01A
  notes: Filtered to TRTEMFL='Y'. Include PTs where incidence ≥5% in either arm. Within SOC, PTs sorted by maximum incidence across arms (descending).
  annotations:
    population: 'ADSL: SAFFL=''Y''  |  analysis by TRT01A'
    primary_dataset: ADAE WHERE TRTEMFL='Y'
    rows:
    - row: Any TEAE (header)
      dataset: ADAE
      where: TRTEMFL='Y'
      variable: USUBJID
      derivation: n(%) with >= 1 event
    - row: System Organ Class (SOC)
      dataset: ADAE
      where: TRTEMFL='Y'
      variable: AEBODSYS
      derivation: n(%) subjects with >= 1 PT in SOC; sorted by AEBODSYS
    - row: Preferred Term (PT)
      dataset: ADAE
      where: TRTEMFL='Y'
      variable: AEDECOD
      derivation: n(%) subjects with >= 1 occurrence; threshold >= 5% either arm; sorted by max incidence across arms desc
    note: Preliminary v0.1 — based on AD*-spec.md; confirm after Phase 5 ADaM delivery.
- id: T-AE-03
  kind: table
  title: Grade ≥3 TEAEs by SOC and PT
  analysis_set: SAFETY
  reason: SPECIFIED IN SAP
  purpose: SAFETY OUTCOME MEASURE
  source_datasets:
  - ADAE
  parameter_codes: []
  key_variables:
  - TRT01A
  - AEBODSYS
  - AEDECOD
  - TRTEMFL
  - AETOXGR
  methods:
  - M-DESCR-CAT
  sap_ref: §5.5
  reference_documents:
  - SAP-0.3
  layout:
    rows: SOC → PT
    columns: TRT01A
  notes: Filtered to TRTEMFL='Y' AND AETOXGR ∈ {3,4,5}.
  annotations:
    population: 'ADSL: SAFFL=''Y''  |  analysis by TRT01A'
    primary_dataset: ADAE WHERE TRTEMFL='Y' AND AETOXGR IN (3,4,5)
    rows:
    - row: Grade >= 3 TEAE by SOC
      dataset: ADAE
      where: TRTEMFL='Y' AND AETOXGR IN (3,4,5)
      variable: AEBODSYS
      derivation: n(%) subjects per SOC
    - row: Preferred Term (PT)
      dataset: ADAE
      where: TRTEMFL='Y' AND AETOXGR IN (3,4,5)
      variable: AEDECOD
      derivation: n(%) subjects with >= 1 Grade 3+ PT
    note: Preliminary v0.1 — based on AD*-spec.md; confirm after Phase 5 ADaM delivery.
- id: T-AE-04
  kind: table
  title: Serious Adverse Events by SOC and PT
  analysis_set: SAFETY
  reason: SPECIFIED IN SAP
  purpose: SAFETY OUTCOME MEASURE
  source_datasets:
  - ADAE
  parameter_codes: []
  key_variables:
  - TRT01A
  - AEBODSYS
  - AEDECOD
  - AESER
  methods:
  - M-DESCR-CAT
  sap_ref: §5.5
  reference_documents:
  - SAP-0.3
  layout:
    rows: SOC → PT
    columns: TRT01A
  notes: Filtered to AESER='Y'.
  annotations:
    population: 'ADSL: SAFFL=''Y''  |  analysis by TRT01A'
    primary_dataset: ADAE WHERE AESER='Y'
    rows:
    - row: SAE by SOC
      dataset: ADAE
      where: AESER='Y'
      variable: AEBODSYS
      derivation: n(%) subjects per SOC
    - row: Preferred Term (PT)
      dataset: ADAE
      where: AESER='Y'
      variable: AEDECOD
      derivation: n(%) subjects with >= 1 SAE PT
    note: Preliminary v0.1 — based on AD*-spec.md; confirm after Phase 5 ADaM delivery.
- id: T-AE-05
  kind: table
  title: Immune-Related AEs by Category
  analysis_set: SAFETY
  reason: SPECIFIED IN SAP
  purpose: SAFETY OUTCOME MEASURE
  source_datasets:
  - ADAE
  parameter_codes: []
  key_variables:
  - TRT01A
  - IRAEFL
  - IRAECAT
  - AETOXGR
  methods:
  - M-DESCR-CAT
  - M-KM-TTE-ONSET
  sap_ref: §5.5
  reference_documents:
  - SAP-0.3
  - PROTO-1.2
  layout:
    rows: irAE category (pneumonitis/colitis/hepatitis/endocrinopathies/IRR) × grade
    columns: TRT01A
  notes: n (%) by category × grade; median time to onset and resolution (KM). Filtered to IRAEFL='Y'.
  annotations:
    population: 'ADSL: SAFFL=''Y''  |  analysis by TRT01A'
    primary_dataset: 'ADAE WHERE IRAEFL=''Y''  # study-specific'
    rows:
    - row: Any irAE
      dataset: ADAE
      where: 'IRAEFL=''Y''  # study-specific'
      variable: USUBJID
      derivation: n(%)
    - row: irAE category x grade (n, %)
      dataset: ADAE
      where: IRAEFL='Y'
      variable: 'IRAECAT  # study-specific'
      derivation: n(%) by IRAECAT x AETOXGR
    - row: Median time to onset (months)
      dataset: ADAE
      where: IRAEFL='Y'
      variable: ASTDT
      derivation: survfit on ASTDT - TRTSDT; KM median
    - row: Median time to resolution (months)
      dataset: ADAE
      where: IRAEFL='Y' AND AEOUT IN ('RECOVERED','RESOLVED')
      variable: AENDT
      derivation: survfit on AENDT - ASTDT; KM median
    note: Preliminary v0.1 — based on AD*-spec.md; confirm after Phase 5 ADaM delivery.
- id: T-AE-06
  kind: table
  title: AESIs by Category
  analysis_set: SAFETY
  reason: SPECIFIED IN SAP
  purpose: SAFETY OUTCOME MEASURE
  source_datasets:
  - ADAE
  parameter_codes: []
  key_variables:
  - TRT01A
  - AESI
  - AETOXGR
  methods:
  - M-DESCR-CAT
  sap_ref: §5.5
  reference_documents:
  - SAP-0.3
  - PROTO-1.2
  layout:
    rows: AESI category × grade
    columns: TRT01A
  notes: 'Category flag from sponsor AESI MedDRA PT codelist `raw/codelists/aesi_meddra_pts.csv` (56 PTs across 12 categories: Pneumonitis, Colitis, Hepatitis, Endocrine, Dermatologic, Renal, Cardiac, Neurologic, Infusion Reaction, Ocular, Hematologic, Musculoskeletal) per Protocol §7.4. Per-PT grade rule: most PTs are AESI at any grade; selected lab/symptom PTs require Grade≥3 (e.g. ALT/AST, AKI, rash, diarrhoea, pruritus); IRR requires Grade≥2.'
  annotations:
    population: 'ADSL: SAFFL=''Y''  |  analysis by TRT01A'
    primary_dataset: 'ADAE WHERE AESI=''Y''  # study-specific'
    rows:
    - row: Any AESI
      dataset: ADAE
      where: 'AESI=''Y''  # study-specific'
      variable: USUBJID
      derivation: n(%)
    - row: AESI category x grade (n, %)
      dataset: ADAE
      where: AESI='Y'
      variable: 'AESICAT  # study-specific'
      derivation: n(%) by AESICAT x AETOXGR
    note: Preliminary v0.1 — based on AD*-spec.md; confirm after Phase 5 ADaM delivery.
- id: T-AE-07
  kind: table
  title: Deaths
  analysis_set: SAFETY
  reason: SPECIFIED IN SAP
  purpose: SAFETY OUTCOME MEASURE
  source_datasets:
  - ADSL
  - ADAE
  parameter_codes: []
  key_variables:
  - TRT01A
  - DTHFL
  - DTHDT
  - DTHCAUS
  - TRTEDT
  methods:
  - M-DESCR-CAT
  sap_ref: §5.5
  reference_documents:
  - SAP-0.3
  layout:
    rows: All deaths; within 30 days of last dose; due to AE; due to disease progression; other
    columns: TRT01A
  notes: 'Mixed population: on-treatment denominator = Safety; all deaths denominator = ITT (noted per row).'
  annotations:
    population: 'ADSL: SAFFL=''Y''  |  analysis by TRT01A'
    primary_dataset: ADSL WHERE DTHFL='Y' + ADAE WHERE AESDTH='Y'
    rows:
    - row: All on-study deaths, n (%)
      dataset: ADSL
      where: DTHFL='Y'
      variable: DTHFL
      derivation: n(%)
    - row: Within 30 days of last dose
      dataset: ADSL
      where: DTHFL='Y' AND DTHDT-TRTEDT<=30
      variable: DTHDT
      derivation: n(%) where DTHDT-TRTEDT <= 30
    - row: Due to adverse event
      dataset: ADAE
      where: AESDTH='Y'
      variable: USUBJID
      derivation: n(%)
    - row: Due to disease progression
      dataset: ADSL
      where: DTHFL='Y'
      variable: DTHCAUS
      derivation: n(%) where DTHCAUS='DISEASE PROGRESSION'
    - row: Other / Unknown
      dataset: ADSL
      where: DTHFL='Y'
      variable: DTHCAUS
      derivation: n(%) remaining causes
    note: Preliminary v0.1 — based on AD*-spec.md; confirm after Phase 5 ADaM delivery.
- id: T-LB-01
  kind: table
  title: Laboratory Abnormalities (Shift Table)
  analysis_set: SAFETY
  reason: SPECIFIED IN SAP
  purpose: SAFETY OUTCOME MEASURE
  source_datasets:
  - ADLB
  parameter_codes: []
  key_variables:
  - TRT01A
  - PARAMCD
  - BASE
  - AVAL
  - BNRIND
  - ANRIND
  methods:
  - M-SHIFT
  sap_ref: §5.5
  reference_documents:
  - SAP-0.3
  layout:
    rows: Baseline status (Normal/Low/High)
    columns: Worst post-baseline status (Normal/Low/High)
  notes: One panel per PARAMCD.
  annotations:
    population: 'ADSL: SAFFL=''Y''  |  analysis by TRT01A'
    primary_dataset: ADLB WHERE SAFFL='Y' (one panel per PARAMCD per arm)
    rows:
    - row: Baseline NCI status (Normal/Low/High)
      dataset: ADLB
      where: SAFFL='Y' AND ABLFL='Y'
      variable: BNRIND
      derivation: Cross-tab BNRIND x worst post-baseline ANRIND
    - row: Worst post-baseline NCI status (Normal/Low/High)
      dataset: ADLB
      where: SAFFL='Y' AND ANL01FL='Y'
      variable: ANRIND
      derivation: max(ATOXGR) post-baseline -> ANRIND
    - row: PARAMCD filter (one panel per test)
      dataset: ADLB
      where: PARAMCD = <lab test>
      variable: PARAMCD
      derivation: Loop over selected PARAMCDs
    note: Preliminary v0.1 — based on AD*-spec.md; confirm after Phase 5 ADaM delivery.
- id: T-LB-02
  kind: table
  title: Laboratory CTCAE Grade ≥3
  analysis_set: SAFETY
  reason: SPECIFIED IN SAP
  purpose: SAFETY OUTCOME MEASURE
  source_datasets:
  - ADLB
  parameter_codes: []
  key_variables:
  - TRT01A
  - PARAMCD
  - ATOXGR
  methods:
  - M-DESCR-CAT
  sap_ref: §5.5
  reference_documents:
  - SAP-0.3
  layout:
    rows: PARAMCD
    columns: TRT01A
  notes: n (%) with ≥1 post-baseline ATOXGR ≥ 3 per PARAMCD.
  annotations:
    population: 'ADSL: SAFFL=''Y''  |  analysis by TRT01A'
    primary_dataset: ADLB WHERE SAFFL='Y' AND ATOXGR >= 3
    rows:
    - row: Lab test (PARAMCD), n (%)
      dataset: ADLB
      where: SAFFL='Y' AND ATOXGR >= 3 AND ANL01FL='Y'
      variable: PARAMCD,ATOXGR
      derivation: n(%) subjects with >= 1 post-baseline Grade 3+ per PARAMCD
    note: Preliminary v0.1 — based on AD*-spec.md; confirm after Phase 5 ADaM delivery.
- id: F-EFF-01
  kind: figure
  title: Kaplan-Meier Curve — OS
  analysis_set: ITT
  reason: SPECIFIED IN PROTOCOL
  purpose: PRIMARY OUTCOME MEASURE
  source_datasets:
  - ADTTE
  parameter_codes:
  - OS
  key_variables:
  - TRT01P
  - AVAL
  - CNSR
  methods:
  - M-KM-MEDIAN
  sap_ref: §5.1
  reference_documents:
  - SAP-0.3
  layout:
    axes: x = time (months), y = survival probability (0–1)
    features: 95% CI bands (log-log); number-at-risk table at 0, 6, 12, 18, 24, 30, 36 months
    annotations: stratified log-rank p, HR (95% CI)
  notes: One curve per TRT01P.
  annotations:
    population: 'ADSL: ITTFL=''Y''  |  analysis by TRT01P'
    primary_dataset: ADTTE WHERE PARAMCD='OS'
    rows:
    - row: 'x-axis: time in months'
      dataset: ADTTE
      where: PARAMCD='OS'
      variable: AVAL
      derivation: AVAL / 30.4375
    - row: 'y-axis: survival probability'
      dataset: ADTTE
      where: PARAMCD='OS'
      variable: AVAL,CNSR
      derivation: survfit(Surv(AVAL,1-CNSR)~TRT01P+strata(STRAT2,STRAT3)) -> surv
    - row: 95% CI bands (shaded)
      dataset: ADTTE
      where: PARAMCD='OS'
      variable: AVAL,CNSR
      derivation: survfit(..., conf.type='log-log') -> lower/upper
    - row: Number-at-risk table
      dataset: ADTTE
      where: PARAMCD='OS'
      variable: AVAL
      derivation: summary(survfit, times=seq(0,36,6)*30.4375) -> n.risk per arm
    - row: HR + 95% CI annotation
      dataset: ADTTE
      where: PARAMCD='OS'
      variable: AVAL,CNSR
      derivation: coxph -> exp(coef) / confint
    - row: Stratified log-rank p annotation
      dataset: ADTTE
      where: PARAMCD='OS'
      variable: AVAL,CNSR
      derivation: survdiff -> p-value
    note: Preliminary v0.1 — based on AD*-spec.md; confirm after Phase 5 ADaM delivery.
- id: F-EFF-02
  kind: figure
  title: Kaplan-Meier Curve — PFS
  analysis_set: ITT
  reason: SPECIFIED IN PROTOCOL
  purpose: SECONDARY OUTCOME MEASURE
  source_datasets:
  - ADTTE
  parameter_codes:
  - PFS
  key_variables:
  - TRT01P
  - AVAL
  - CNSR
  methods:
  - M-KM-MEDIAN
  sap_ref: §5.2
  reference_documents:
  - SAP-0.3
  layout:
    axes: x = time (months), y = progression-free probability
    features: Same layout as F-EFF-01
  notes: Same structure as F-EFF-01 for PFS.
  annotations:
    population: 'ADSL: ITTFL=''Y''  |  analysis by TRT01P'
    primary_dataset: ADTTE WHERE PARAMCD='PFS'
    rows:
    - row: 'x-axis: time in months'
      dataset: ADTTE
      where: PARAMCD='PFS'
      variable: AVAL
      derivation: AVAL / 30.4375
    - row: 'y-axis: PFS probability'
      dataset: ADTTE
      where: PARAMCD='PFS'
      variable: AVAL,CNSR
      derivation: survfit(Surv(AVAL,1-CNSR)~TRT01P+strata(STRAT2,STRAT3)) -> surv
    - row: 95% CI bands (shaded)
      dataset: ADTTE
      where: PARAMCD='PFS'
      variable: AVAL,CNSR
      derivation: survfit(..., conf.type='log-log') -> lower/upper
    - row: Number-at-risk table
      dataset: ADTTE
      where: PARAMCD='PFS'
      variable: AVAL
      derivation: summary(survfit, times=seq(0,24,6)*30.4375) -> n.risk per arm
    - row: HR + 95% CI annotation
      dataset: ADTTE
      where: PARAMCD='PFS'
      variable: AVAL,CNSR
      derivation: coxph -> exp(coef) / confint
    - row: Stratified log-rank p annotation
      dataset: ADTTE
      where: PARAMCD='PFS'
      variable: AVAL,CNSR
      derivation: survdiff -> p-value
    note: Preliminary v0.1 — based on AD*-spec.md; confirm after Phase 5 ADaM delivery.
- id: F-EFF-03
  kind: figure
  title: Waterfall — Best Percent Change in SLD
  analysis_set: RESPEVAL
  reason: SPECIFIED IN SAP
  purpose: SECONDARY OUTCOME MEASURE
  source_datasets:
  - ADTR
  parameter_codes:
  - PCHG
  key_variables:
  - TRT01P
  - USUBJID
  - AVAL
  - PCHG
  methods:
  - M-WATERFALL
  sap_ref: §5.3
  reference_documents:
  - SAP-0.3
  layout:
    axes: x = subject (sorted), y = best % change from baseline
    features: Reference lines at −30% (PR) and +20% (PD); coloured by TRT01P
  notes: Restricted to subjects with measurable disease at baseline.
  annotations:
    population: 'ADSL: ITTFL=''Y'' + ADRS: EFFFL=''Y''  |  analysis by TRT01P'
    primary_dataset: ADTR WHERE PARAMCD='PCHG' (best % change from baseline SLD)
    rows:
    - row: 'x-axis: subject (sorted by best % change desc)'
      dataset: ADTR
      where: PARAMCD='PCHG' AND ANL01FL='Y'
      variable: USUBJID
      derivation: order by AVAL ascending (most negative = best response)
    - row: 'y-axis: best % change from baseline SLD'
      dataset: ADTR
      where: PARAMCD='PCHG' AND ANL01FL='Y'
      variable: AVAL
      derivation: PCHG = (SLD_nadir - SLD_baseline) / SLD_baseline * 100
    - row: Bar colour by treatment arm
      dataset: ADTR
      where: PARAMCD='PCHG'
      variable: TRT01P
      derivation: fill = TRT01P
    - row: Reference line at -30% (PR threshold)
      dataset: —
      where: —
      variable: —
      derivation: geom_hline(yintercept=-30)
    - row: Reference line at +20% (PD threshold)
      dataset: —
      where: —
      variable: —
      derivation: geom_hline(yintercept=20)
    note: Preliminary v0.1 — based on AD*-spec.md; confirm after Phase 5 ADaM delivery.
- id: F-EFF-04
  kind: figure
  title: Spider — SLD Change Over Time
  analysis_set: RESPEVAL
  reason: SPECIFIED IN SAP
  purpose: EXPLORATORY OUTCOME MEASURE
  source_datasets:
  - ADTR
  parameter_codes:
  - PCHG
  key_variables:
  - TRT01P
  - USUBJID
  - ADY
  - PCHG
  methods:
  - M-SPIDER
  sap_ref: §5.3
  reference_documents:
  - SAP-0.3
  layout:
    axes: x = weeks from baseline, y = % change from baseline SLD
    features: One line per subject; coloured by TRT01P; optional faceting by arm
  notes: ''
  annotations:
    population: 'ADSL: ITTFL=''Y'' + ADRS: EFFFL=''Y''  |  analysis by TRT01P'
    primary_dataset: ADTR WHERE PARAMCD='PCHG' (longitudinal % change per visit)
    rows:
    - row: 'x-axis: weeks from baseline'
      dataset: ADTR
      where: PARAMCD='PCHG'
      variable: ADY
      derivation: ADY / 7
    - row: 'y-axis: % change from baseline SLD'
      dataset: ADTR
      where: PARAMCD='PCHG'
      variable: AVAL
      derivation: PCHG per visit (not restricted to nadir)
    - row: One line per subject
      dataset: ADTR
      where: PARAMCD='PCHG'
      variable: USUBJID
      derivation: group = USUBJID
    - row: Line colour by treatment arm
      dataset: ADTR
      where: PARAMCD='PCHG'
      variable: TRT01P
      derivation: colour = TRT01P
    note: Preliminary v0.1 — based on AD*-spec.md; confirm after Phase 5 ADaM delivery.
- id: F-EFF-05
  kind: figure
  title: Forest — OS HR by Subgroup
  analysis_set: ITT
  reason: SPECIFIED IN SAP
  purpose: SECONDARY OUTCOME MEASURE
  source_datasets:
  - ADSL
  - ADTTE
  parameter_codes:
  - OS
  key_variables:
  - TRT01P
  - AVAL
  - CNSR
  - HISTSCAT
  - REGION1
  - SEX
  - AGEGR1
  - BECOG
  - PDL1GR
  methods:
  - M-FOREST-SUBGROUP
  sap_ref: §10
  reference_documents:
  - SAP-0.3
  layout:
    rows: Subgroup levels
    columns: n, events, HR (95% CI), forest plot
  notes: Per-subgroup unstratified Cox HR; overall stratified HR at top. Square size ∝ subgroup n.
  annotations:
    population: 'ADSL: ITTFL=''Y''  |  analysis by TRT01P'
    primary_dataset: ADTTE WHERE PARAMCD='OS' + ADSL subgroup variables
    rows:
    - row: Per-subgroup HR + 95% CI
      dataset: ADTTE+ADSL
      where: PARAMCD='OS'
      variable: 'AVAL,CNSR,HISTSCAT,REGION1,SEX,AGEGR1,BECOG,PDL1GR  # study-specific'
      derivation: coxph(Surv(AVAL,1-CNSR)~TRT01P) per subgroup level (unstratified)
    - row: n and events per subgroup level
      dataset: ADTTE+ADSL
      where: PARAMCD='OS'
      variable: USUBJID,CNSR
      derivation: n() and sum(1-CNSR) per subgroup level
    - row: Overall HR (diamond)
      dataset: ADTTE
      where: PARAMCD='OS'
      variable: AVAL,CNSR
      derivation: coxph -> exp(coef) stratified overall (same as T-EFF-01)
    - row: 'x-axis: log-scale HR (0.1 to 10)'
      dataset: —
      where: —
      variable: —
      derivation: scale_x_log10()
    note: Preliminary v0.1 — based on AD*-spec.md; confirm after Phase 5 ADaM delivery.
- id: F-EFF-06
  kind: figure
  title: Swimmer — Responders
  analysis_set: RESPONDERS
  reason: SPECIFIED IN SAP
  purpose: EXPLORATORY OUTCOME MEASURE
  source_datasets:
  - ADSL
  - ADRS
  - ADTTE
  parameter_codes:
  - CBOR
  - DOR
  key_variables:
  - TRT01P
  - USUBJID
  - AVISITN
  - AVALC
  - ADT
  methods:
  - M-SWIMMER
  sap_ref: §5.4
  reference_documents:
  - SAP-0.3
  layout:
    axes: x = weeks from randomisation; one lane per responder
    features: Response episodes; markers for PD, death, ongoing
  notes: Confirmed responders only.
  annotations:
    population: 'ADSL: ITTFL=''Y'' + ADRS: EFFFL=''Y'' AND ANL01FL=''Y'' AND AVALC IN (''CR'',''PR'')  |  analysis by TRT01P'
    primary_dataset: ADSL + ADRS WHERE PARAMCD='CBOR' + ADTTE WHERE PARAMCD='DOR'
    rows:
    - row: 'x-axis: time from randomisation (months)'
      dataset: ADSL
      where: ITTFL='Y'
      variable: RANDDT
      derivation: ADT - RANDDT converted to months
    - row: Lane per responder (y-axis)
      dataset: ADSL
      where: 'ORRFL=''Y''  # study-specific'
      variable: USUBJID
      derivation: one horizontal bar per responder
    - row: Response bar start
      dataset: ADRS
      where: AVALC IN ('CR','PR') AND ANL01FL='Y'
      variable: ADT
      derivation: first response date
    - row: Response bar end (PD or censored)
      dataset: ADTTE
      where: PARAMCD='DOR'
      variable: AVAL
      derivation: start + AVAL days; open arrow if censored
    - row: PD event marker
      dataset: ADRS
      where: AVALC='PD'
      variable: ADT
      derivation: triangle marker at PD date
    - row: Death marker
      dataset: ADSL
      where: DTHFL='Y'
      variable: DTHDT
      derivation: X marker at DTHDT
    note: Preliminary v0.1 — based on AD*-spec.md; confirm after Phase 5 ADaM delivery.
- id: L-AE-01
  kind: listing
  title: Serious Adverse Events
  analysis_set: SAFETY
  reason: SPECIFIED IN SAP
  purpose: SAFETY OUTCOME MEASURE
  source_datasets:
  - ADAE
  parameter_codes: []
  key_variables:
  - USUBJID
  - TRT01A
  - AEBODSYS
  - AEDECOD
  - ASTDT
  - AENDT
  - AETOXGR
  - AESER
  - AEACN
  - AEREL
  - AEOUT
  methods: []
  sap_ref: §5.5
  reference_documents:
  - SAP-0.3
  layout:
    rows: One row per SAE record
    sort: USUBJID, ASTDT
  notes: Filtered to AESER='Y'.
  annotations:
    population: 'ADSL: SAFFL=''Y''  |  analysis by TRT01A'
    rows:
    - row: USUBJID
      dataset: ADAE
      where: AESER='Y'
      variable: USUBJID
      derivation: Subject identifier; sort key 1
    - row: TRT01A
      dataset: ADAE
      where: AESER='Y'
      variable: TRT01A
      derivation: Actual treatment arm
    - row: AEBODSYS
      dataset: ADAE
      where: AESER='Y'
      variable: AEBODSYS
      derivation: MedDRA System Organ Class
    - row: AEDECOD
      dataset: ADAE
      where: AESER='Y'
      variable: AEDECOD
      derivation: MedDRA Preferred Term
    - row: ASTDT
      dataset: ADAE
      where: AESER='Y'
      variable: ASTDT
      derivation: AE start date (ISO 8601); sort key 2
    - row: AENDT
      dataset: ADAE
      where: AESER='Y'
      variable: AENDT
      derivation: AE end date
    - row: AETOXGR
      dataset: ADAE
      where: AESER='Y'
      variable: AETOXGR
      derivation: CTCAE grade at worst severity
    - row: AEACN
      dataset: ADAE
      where: AESER='Y'
      variable: AEACN
      derivation: Action taken with study drug
    - row: AEREL
      dataset: ADAE
      where: AESER='Y'
      variable: AEREL
      derivation: Causal relationship to study drug
    - row: AEOUT
      dataset: ADAE
      where: AESER='Y'
      variable: AEOUT
      derivation: AE outcome
    note: Preliminary v0.1 — based on AD*-spec.md; confirm after Phase 5 ADaM delivery.
- id: L-AE-02
  kind: listing
  title: Deaths
  analysis_set: SAFETY
  reason: SPECIFIED IN SAP
  purpose: SAFETY OUTCOME MEASURE
  source_datasets:
  - ADSL
  parameter_codes: []
  key_variables:
  - USUBJID
  - TRT01A
  - DTHDT
  - DTHCAUS
  - TRTEDT
  - RANDDT
  - EOSSTT
  methods: []
  sap_ref: §5.5
  reference_documents:
  - SAP-0.3
  layout:
    rows: One row per subject with DTHFL='Y'
  notes: 'Computed columns: days from last dose to death; days from randomisation to death.'
  annotations:
    population: 'ADSL: SAFFL=''Y''  |  analysis by TRT01A'
    rows:
    - row: USUBJID
      dataset: ADSL
      where: DTHFL='Y'
      variable: USUBJID
      derivation: Subject identifier
    - row: TRT01A
      dataset: ADSL
      where: DTHFL='Y'
      variable: TRT01A
      derivation: Actual treatment arm
    - row: DTHDT
      dataset: ADSL
      where: DTHFL='Y'
      variable: DTHDT
      derivation: Date of death (ISO 8601)
    - row: DTHCAUS
      dataset: ADSL
      where: DTHFL='Y'
      variable: DTHCAUS
      derivation: Primary cause of death
    - row: TRTEDT
      dataset: ADSL
      where: DTHFL='Y'
      variable: TRTEDT
      derivation: Last dose date (for days-since-last-dose computation)
    - row: RANDDT
      dataset: ADSL
      where: DTHFL='Y'
      variable: RANDDT
      derivation: Randomisation date (for OS computation)
    - row: EOSSTT
      dataset: ADSL
      where: DTHFL='Y'
      variable: EOSSTT
      derivation: End-of-study status
    - row: 'Computed: days from last dose to death'
      dataset: ADSL
      where: DTHFL='Y'
      variable: DTHDT-TRTEDT
      derivation: DTHDT - TRTEDT (days)
    - row: 'Computed: days from randomisation to death'
      dataset: ADSL
      where: DTHFL='Y'
      variable: DTHDT-RANDDT
      derivation: DTHDT - RANDDT (days)
    note: Preliminary v0.1 — based on AD*-spec.md; confirm after Phase 5 ADaM delivery.
- id: L-AE-03
  kind: listing
  title: AEs Leading to Discontinuation
  analysis_set: SAFETY
  reason: SPECIFIED IN SAP
  purpose: SAFETY OUTCOME MEASURE
  source_datasets:
  - ADAE
  parameter_codes: []
  key_variables:
  - USUBJID
  - TRT01A
  - AEDECOD
  - ASTDT
  - AETOXGR
  - AEREL
  - TRTEDT
  methods: []
  sap_ref: §5.5
  reference_documents:
  - SAP-0.3
  layout:
    rows: One row per AE
  notes: Filtered to AEACN='DRUG WITHDRAWN'.
  annotations:
    population: 'ADSL: SAFFL=''Y''  |  analysis by TRT01A'
    rows:
    - row: USUBJID
      dataset: ADAE
      where: AEACN='DRUG WITHDRAWN'
      variable: USUBJID
      derivation: Subject identifier
    - row: TRT01A
      dataset: ADAE
      where: AEACN='DRUG WITHDRAWN'
      variable: TRT01A
      derivation: Actual treatment arm
    - row: AEDECOD
      dataset: ADAE
      where: AEACN='DRUG WITHDRAWN'
      variable: AEDECOD
      derivation: MedDRA Preferred Term
    - row: ASTDT
      dataset: ADAE
      where: AEACN='DRUG WITHDRAWN'
      variable: ASTDT
      derivation: AE start date
    - row: AETOXGR
      dataset: ADAE
      where: AEACN='DRUG WITHDRAWN'
      variable: AETOXGR
      derivation: CTCAE grade at worst severity
    - row: AEREL
      dataset: ADAE
      where: AEACN='DRUG WITHDRAWN'
      variable: AEREL
      derivation: Causal relationship
    - row: TRTEDT
      dataset: ADSL
      where: SAFFL='Y'
      variable: TRTEDT
      derivation: Last dose date
    note: Preliminary v0.1 — based on AD*-spec.md; confirm after Phase 5 ADaM delivery.
- id: L-LB-01
  kind: listing
  title: Grade ≥3 Laboratory Abnormalities
  analysis_set: SAFETY
  reason: SPECIFIED IN SAP
  purpose: SAFETY OUTCOME MEASURE
  source_datasets:
  - ADLB
  parameter_codes: []
  key_variables:
  - USUBJID
  - TRT01A
  - PARAMCD
  - AVISIT
  - ADT
  - AVAL
  - ANRLO
  - ANRHI
  - ATOXGR
  methods: []
  sap_ref: §5.5
  reference_documents:
  - SAP-0.3
  layout:
    rows: One row per lab result
  notes: Filtered to ATOXGR ≥ 3.
  annotations:
    population: 'ADSL: SAFFL=''Y''  |  analysis by TRT01A'
    rows:
    - row: USUBJID
      dataset: ADLB
      where: ATOXGR >= 3 AND ANL01FL='Y'
      variable: USUBJID
      derivation: Subject identifier
    - row: TRT01A
      dataset: ADLB
      where: ATOXGR >= 3
      variable: TRT01A
      derivation: Actual treatment arm
    - row: PARAMCD
      dataset: ADLB
      where: ATOXGR >= 3
      variable: PARAMCD
      derivation: Lab test code (e.g. ALT, HGB)
    - row: AVISIT
      dataset: ADLB
      where: ATOXGR >= 3
      variable: AVISIT
      derivation: Analysis visit label
    - row: ADT
      dataset: ADLB
      where: ATOXGR >= 3
      variable: ADT
      derivation: Analysis date
    - row: AVAL
      dataset: ADLB
      where: ATOXGR >= 3
      variable: AVAL
      derivation: Lab result value
    - row: ANRLO
      dataset: ADLB
      where: ATOXGR >= 3
      variable: ANRLO
      derivation: Normal range lower limit
    - row: ANRHI
      dataset: ADLB
      where: ATOXGR >= 3
      variable: ANRHI
      derivation: Normal range upper limit
    - row: ATOXGR
      dataset: ADLB
      where: ATOXGR >= 3
      variable: ATOXGR
      derivation: NCI CTCAE toxicity grade
    note: Preliminary v0.1 — based on AD*-spec.md; confirm after Phase 5 ADaM delivery.
- id: L-DS-01
  kind: listing
  title: Major Protocol Deviations
  analysis_set: ITT
  reason: SPECIFIED IN SAP
  purpose: SUBJECT DISPOSITION
  source_datasets:
  - SDTM.DS
  parameter_codes: []
  key_variables:
  - USUBJID
  - TRT01P
  - DSSTDTC
  methods: []
  sap_ref: §3.2
  reference_documents:
  - SAP-0.3
  layout:
    rows: One row per deviation
  notes: Filtered to DSDECOD='PROTOCOL DEVIATION' AND DSSCAT='MAJOR'. Shows deviation category and description.
  annotations:
    population: 'ADSL: ITTFL=''Y''  |  analysis by TRT01P'
    rows:
    - row: USUBJID
      dataset: SDTM.DS
      where: DSDECOD='PROTOCOL DEVIATION' AND DSSCAT='MAJOR'
      variable: USUBJID
      derivation: Subject identifier
    - row: TRT01P
      dataset: ADSL
      where: ITTFL='Y'
      variable: TRT01P
      derivation: Planned treatment arm (from ADSL)
    - row: DSSTDTC
      dataset: SDTM.DS
      where: DSDECOD='PROTOCOL DEVIATION' AND DSSCAT='MAJOR'
      variable: DSSTDTC
      derivation: Deviation date (ISO 8601)
    - row: DSDECOD
      dataset: SDTM.DS
      where: DSDECOD='PROTOCOL DEVIATION'
      variable: DSDECOD
      derivation: Standardised disposition term
    - row: DSSCAT
      dataset: SDTM.DS
      where: DSSCAT='MAJOR'
      variable: DSSCAT
      derivation: Subcategory (MAJOR)
    - row: DSTERM
      dataset: SDTM.DS
      where: DSDECOD='PROTOCOL DEVIATION' AND DSSCAT='MAJOR'
      variable: DSTERM
      derivation: Verbatim deviation description
    note: Preliminary v0.1 — based on AD*-spec.md; confirm after Phase 5 ADaM delivery.
- id: T-CM-01
  kind: table
  title: Concomitant Medications by Class and Preferred Term
  analysis_set: SAFETY
  reason: SPECIFIED IN SAP
  purpose: CONCOMITANT MEDICATION
  source_datasets:
  - ADCM
  parameter_codes: []
  key_variables:
  - TRT01A
  - CMDECOD
  - CMINDC
  - ONTRTFL
  methods:
  - M-DESCR-CAT
  sap_ref: §5.5
  reference_documents:
  - SAP-0.3
  layout:
    rows: ATC indication class (header) + indented PT rows (>=5% in either arm)
    columns: TRT01A
  notes: Includes preferred terms with on-treatment incidence >= 5% in either arm.
    Class grouping from ADCM.CMINDC (curated ATC indication class).
- id: T-VS-01
  kind: table
  title: Vital Signs — Mean Change from Baseline at Key Visits
  analysis_set: SAFETY
  reason: SPECIFIED IN SAP
  purpose: SAFETY OUTCOME MEASURE
  source_datasets:
  - ADVS
  parameter_codes:
  - SYSBP
  - DIABP
  - HR
  - WEIGHT
  - TEMP
  - RESP
  key_variables:
  - TRT01A
  - PARAMCD
  - AVISIT
  - CHG
  methods:
  - M-DESCR-CONT
  sap_ref: §5.5
  reference_documents:
  - SAP-0.3
  layout:
    rows: Parameter (header) + indented "Change at <visit> Mean (SD)" rows
    columns: TRT01A
  notes: Change from baseline (ADVS.CHG) at C1D1, C4D1, and End of Treatment.
- id: T-VS-02
  kind: table
  title: Weight Change Categories — Worst On-Treatment % Change
  analysis_set: SAFETY
  reason: SPECIFIED IN SAP
  purpose: SAFETY OUTCOME MEASURE
  source_datasets:
  - ADVS
  parameter_codes:
  - WEIGHT
  key_variables:
  - TRT01A
  - PCHG
  methods:
  - M-DESCR-CAT
  sap_ref: §5.5
  reference_documents:
  - SAP-0.3
  layout:
    rows: 7 categories from "Loss >=20%" through "Gain >=20%"
    columns: TRT01A
  notes: Per-subject worst (most extreme) post-baseline % weight change.
- id: T-MH-01
  kind: table
  title: Medical History by Category and Term
  analysis_set: SAFETY
  reason: SPECIFIED IN SAP
  purpose: SUBJECT CHARACTERISTICS
  source_datasets:
  - ADMH
  parameter_codes: []
  key_variables:
  - TRT01A
  - MHCAT
  - MHDECOD
  methods:
  - M-DESCR-CAT
  sap_ref: §5.5
  reference_documents:
  - SAP-0.3
  layout:
    rows: MHCAT header + indented MHDECOD (>=5% in either arm)
    columns: TRT01A
  notes: Synthetic-data note — MHDECOD is title-case verbatim, not MedDRA-coded.
- id: T-DV-01
  kind: table
  title: Protocol Deviations — Detail
  analysis_set: ITT
  reason: SPECIFIED IN SAP
  purpose: SUBJECT DISPOSITION
  source_datasets:
  - ADDV
  parameter_codes: []
  key_variables:
  - TRT01P
  - DVCAT
  - DVSCAT
  methods:
  - M-DESCR-CAT
  sap_ref: §3.2
  reference_documents:
  - SAP-0.3
  layout:
    rows: Severity (Major/Minor) + Subcategory breakdown
    columns: TRT01P
  notes: Supersedes the sparser T-DS-02 view; uses ADDV instead of raw ADSL.PPROTFL.
